subject,list,position,trial_type,item,session,list_type,category,response,response_time
1,1,1,study,"TOWEL",1,pure,obj,3,1.517
1,1,2,study,"LADLE",1,pure,obj,3,1.404
1,1,3,study,"THERMOS",1,pure,obj,3,0.911
1,1,4,study,"LEGO",1,pure,obj,3,0.883
1,1,5,study,"BACKPACK",1,pure,obj,3,0.819
1,1,6,study,"JACKHAMMER",1,pure,obj,1,1.212
1,1,7,study,"LANTERN",1,pure,obj,2,0.888
1,1,8,study,"DOORKNOB",1,pure,obj,3,0.915
1,1,9,study,"SHOVEL",1,pure,obj,1,1.287
1,1,10,study,"WATER GUN",1,pure,obj,1,0.839
1,1,11,study,"INK CARTRIDGE",1,pure,obj,2,0.81
1,1,12,study,"PHONE",1,pure,obj,4,0.833
1,1,13,study,"PAPER CLIP",1,pure,obj,3,0.856
1,1,14,study,"MOUSETRAP",1,pure,obj,1,0.829
1,1,15,study,"SPEAKER",1,pure,obj,2,0.927
1,1,16,study,"CAR SEAT",1,pure,obj,3,0.678
1,1,17,study,"BAYONET",1,pure,obj,1,0.828
1,1,18,study,"MIRROR",1,pure,obj,4,0.836
1,1,19,study,"STONE",1,pure,obj,1,0.897
1,1,20,study,"WATCH",1,pure,obj,4,0.794
1,1,21,study,"PILL",1,pure,obj,3,0.708
1,1,22,study,"SMART CAR",1,pure,obj,1,1.012
1,1,23,study,"REMOTE",1,pure,obj,4,0.97
1,1,24,study,"CHAIN",1,pure,obj,4,0.855
1,1,1,recall,"CHAIN",1,pure,obj,4,0.855
1,1,2,recall,"SMART CAR",1,pure,obj,1,1.012
1,1,3,recall,"BAYONET",1,pure,obj,1,0.828
1,1,4,recall,"WATCH",1,pure,obj,4,0.794
1,1,5,recall,"CAR SEAT",1,pure,obj,3,0.678
1,1,6,recall,"PILL",1,pure,obj,3,0.708
1,1,7,recall,"JACKHAMMER",1,pure,obj,1,1.212
1,1,8,recall,"STONE",1,pure,obj,1,0.897
1,1,9,recall,"SHOVEL",1,pure,obj,1,1.287
1,1,10,recall,"BACKPACK",1,pure,obj,3,0.819
1,1,11,recall,"DOORKNOB",1,pure,obj,3,0.915
1,1,12,recall,"MOUSETRAP",1,pure,obj,1,0.829
1,1,13,recall,"TOWEL",1,pure,obj,3,1.517
1,1,14,recall,"CHAIN",1,pure,obj,4,0.855
1,1,15,recall,"MIRROR",1,pure,obj,4,0.836
1,1,16,recall,"PHONE",1,pure,obj,4,0.833
1,1,17,recall,"PAPER CLIP",1,pure,obj,3,0.856
1,1,18,recall,"LEGO",1,pure,obj,3,0.883
1,1,19,recall,"SHOVEL",1,pure,obj,1,1.287
1,2,1,study,"SEAN PENN",1,mixed,cel,3,1.255
1,2,2,study,"AUDREY HEPBURN",1,mixed,cel,3,1.04
1,2,3,study,"ST PATRICKS CATHEDRAL",1,mixed,loc,2,1.164
1,2,4,study,"LES INVALIDES",1,mixed,loc,2,0.829
1,2,5,study,"GREAT ZIMBABWE RUINS",1,mixed,loc,3,0.872
1,2,6,study,"BRYCE CANYON",1,mixed,loc,2,1.241
1,2,7,study,"TROPHY",1,mixed,obj,3,0.862
1,2,8,study,"BRUSH",1,mixed,obj,3,0.779
1,2,9,study,"SUPREME COURT",1,mixed,loc,2,1.245
1,2,10,study,"SAN FRANCISCO",1,mixed,loc,4,0.854
1,2,11,study,"TREVI FOUNTAIN",1,mixed,loc,2,1.049
1,2,12,study,"TAHITI",1,mixed,loc,4,0.824
1,2,13,study,"ANDRE3000",1,mixed,cel,2,1.263
1,2,14,study,"NICOLAS CAGE",1,mixed,cel,3,0.752
1,2,15,study,"JUSTIN TIMBERLAKE",1,mixed,cel,4,0.898
1,2,16,study,"JULIA ROBERTS",1,mixed,cel,4,0.805
1,2,17,study,"LEBRON JAMES",1,mixed,cel,2,0.928
1,2,18,study,"JOHN MCCAIN",1,mixed,cel,2,1.018
1,2,19,study,"GLASS",1,mixed,obj,3,1.051
1,2,20,study,"KLEENEX",1,mixed,obj,4,0.855
1,2,21,study,"BLENDER",1,mixed,obj,2,1.171
1,2,22,study,"HELMET",1,mixed,obj,1,1.139
1,2,23,study,"CHAIR",1,mixed,obj,4,0.933
1,2,24,study,"BRICK",1,mixed,obj,1,1.043
1,2,1,recall,"BRICK",1,mixed,obj,1,1.043
1,2,2,recall,"CHAIR",1,mixed,obj,4,0.933
1,2,3,recall,"JULIA ROBERTS",1,mixed,cel,4,0.805
1,2,4,recall,"JUSTIN TIMBERLAKE",1,mixed,cel,4,0.898
1,2,5,recall,"SEAN PENN",1,mixed,cel,3,1.255
1,2,6,recall,"LEBRON JAMES",1,mixed,cel,2,0.928
1,2,7,recall,"JOHN MCCAIN",1,mixed,cel,2,1.018
1,2,8,recall,"GLASS",1,mixed,obj,3,1.051
1,2,9,recall,"TAHITI",1,mixed,loc,4,0.824
1,2,10,recall,"SAN FRANCISCO",1,mixed,loc,4,0.854
1,2,11,recall,"ST PATRICKS CATHEDRAL",1,mixed,loc,2,1.164
1,2,12,recall,"BRYCE CANYON",1,mixed,loc,2,1.241
1,2,13,recall,"NICOLAS CAGE",1,mixed,cel,3,0.752
1,2,14,recall,"TROPHY",1,mixed,obj,3,0.862
1,3,1,study,"STOVE",1,mixed,obj,4,0.944
1,3,2,study,"TOASTER",1,mixed,obj,4,0.673
1,3,3,study,"TILE",1,mixed,obj,3,1.025
1,3,4,study,"TEAPOT",1,mixed,obj,4,0.725
1,3,5,study,"ACROPOLIS",1,mixed,loc,3,1.24
1,3,6,study,"GUGGENHEIM",1,mixed,loc,2,1.308
1,3,7,study,"STATUE OF LIBERTY",1,mixed,loc,4,0.853
1,3,8,study,"GIANT'S CAUSEWAY",1,mixed,loc,1,1.136
1,3,9,study,"KATIE HOLMES",1,mixed,cel,4,0.901
1,3,10,study,"REGIS PHILBIN",1,mixed,cel,2,1.04
1,3,11,study,"TOM HANKS",1,mixed,cel,4,0.93
1,3,12,study,"QUEEN LATIFAH",1,mixed,cel,4,0.814
1,3,13,study,"JOHN F KENNEDY",1,mixed,cel,3,0.846
1,3,14,study,"JODIE FOSTER",1,mixed,cel,4,0.909
1,3,15,study,"DEVIL'S TOWER",1,mixed,loc,1,1.065
1,3,16,study,"ARABIAN TOWER",1,mixed,loc,2,0.882
1,3,17,study,"OLD FAITHFUL",1,mixed,loc,3,0.868
1,3,18,study,"ST PAULS CATHEDRAL",1,mixed,loc,3,0.859
1,3,19,study,"PIANO",1,mixed,obj,4,0.748
1,3,20,study,"SCISSORS",1,mixed,obj,4,0.841
1,3,21,study,"WEDDING DRESS",1,mixed,obj,3,0.79
1,3,22,study,"LAPTOP",1,mixed,obj,4,1.012
1,3,23,study,"RUSSELL CROWE",1,mixed,cel,4,0.839
1,3,24,study,"GWEN STEFANI",1,mixed,cel,4,0.73
1,3,1,recall,"RUSSELL CROWE",1,mixed,cel,4,0.839
1,3,2,recall,"GWEN STEFANI",1,mixed,cel,4,0.73
1,3,3,recall,"LAPTOP",1,mixed,obj,4,1.012
1,3,4,recall,"STOVE",1,mixed,obj,4,0.944
1,3,5,recall,"TOASTER",1,mixed,obj,4,0.673
1,3,6,recall,"KATIE HOLMES",1,mixed,cel,4,0.901
1,3,7,recall,"REGIS PHILBIN",1,mixed,cel,2,1.04
1,3,8,recall,"TOM HANKS",1,mixed,cel,4,0.93
1,3,9,recall,"ST PAULS CATHEDRAL",1,mixed,loc,3,0.859
1,3,10,recall,"ACROPOLIS",1,mixed,loc,3,1.24
1,3,11,recall,"JOHN F KENNEDY",1,mixed,cel,3,0.846
1,3,12,recall,"QUEEN LATIFAH",1,mixed,cel,4,0.814
1,3,13,recall,"ARABIAN TOWER",1,mixed,loc,2,0.882
1,3,14,recall,"STATUE OF LIBERTY",1,mixed,loc,4,0.853
1,3,15,recall,"DEVIL'S TOWER",1,mixed,loc,1,1.065
1,3,16,recall,"WEDDING DRESS",1,mixed,obj,3,0.79
1,3,17,recall,"TILE",1,mixed,obj,3,1.025
1,3,18,recall,"SCISSORS",1,mixed,obj,4,0.841
1,4,1,study,"BRANDENBURG GATE",1,mixed,loc,1,1.321
1,4,2,study,"JENNE MOSQUE",1,mixed,loc,2,0.871
1,4,3,study,"USHER",1,mixed,cel,4,0.972
1,4,4,study,"NEWT GINGRICH",1,mixed,cel,3,0.865
1,4,5,study,"TOMATO",1,mixed,obj,4,0.847
1,4,6,study,"MICROSCOPE",1,mixed,obj,3,0.641
1,4,7,study,"ELIZABETH TAYLOR",1,mixed,cel,4,0.465
1,4,8,study,"FAITH HILL",1,mixed,cel,2,0.544
1,4,9,study,"BILLY CRYSTAL",1,mixed,cel,3,0.666
1,4,10,study,"MOUNT KILIMANJARO",1,mixed,loc,2,0.678
1,4,11,study,"QUINCY MARKET",1,mixed,loc,3,0.747
1,4,12,study,"NIAGARA FALLS",1,mixed,loc,4,0.604
1,4,13,study,"STAMP",1,mixed,obj,3,0.661
1,4,14,study,"SHELF",1,mixed,obj,2,0.764
1,4,15,study,"MASCARA",1,mixed,obj,4,0.673
1,4,16,study,"JESSICA SIMPSON",1,mixed,cel,3,0.768
1,4,17,study,"OWEN WILSON",1,mixed,cel,4,0.832
1,4,18,study,"LIAM NEESON",1,mixed,cel,3,0.93
1,4,19,study,"PEARL HARBOR",1,mixed,loc,4,0.767
1,4,20,study,"SALT LAKE TEMPLE",1,mixed,loc,3,1.062
1,4,21,study,"GRAND CANYON",1,mixed,loc,4,0.765
1,4,22,study,"BASEBALL BAT",1,mixed,obj,4,1.119
1,4,23,study,"HANGER",1,mixed,obj,4,0.755
1,4,24,study,"SURGE PROTECTOR",1,mixed,obj,3,0.862
1,4,1,recall,"SURGE PROTECTOR",1,mixed,obj,3,0.862
1,4,2,recall,"BASEBALL BAT",1,mixed,obj,4,1.119
1,4,3,recall,"JESSICA SIMPSON",1,mixed,cel,3,0.768
1,4,4,recall,"LIAM NEESON",1,mixed,cel,3,0.93
1,4,5,recall,"USHER",1,mixed,cel,4,0.972
1,4,6,recall,"ELIZABETH TAYLOR",1,mixed,cel,4,0.465
1,4,7,recall,"PEARL HARBOR",1,mixed,loc,4,0.767
1,4,8,recall,"NIAGARA FALLS",1,mixed,loc,4,0.604
1,4,9,recall,"HANGER",1,mixed,obj,4,0.755
1,5,1,study,"TIMES SQUARE",1,pure,loc,4,0.873
1,5,2,study,"WAILING WALL",1,pure,loc,2,1.229
1,5,3,study,"WORLD WAR II MEMORIAL",1,pure,loc,3,0.974
1,5,4,study,"GRAND OLE OPRY",1,pure,loc,1,1.116
1,5,5,study,"SEVEN MILE BRIDGE",1,pure,loc,2,0.868
1,5,6,study,"OLYMPIA",1,pure,loc,3,0.711
1,5,7,study,"ARUBA",1,pure,loc,3,0.661
1,5,8,study,"SIERRA NEVADA",1,pure,loc,4,0.685
1,5,9,study,"ST BASILS CATHEDRAL",1,pure,loc,3,0.977
1,5,10,study,"LINCOLN FINANCIAL FIELD",1,pure,loc,3,0.838
1,5,11,study,"KENSINGTON PALACE",1,pure,loc,2,0.963
1,5,12,study,"TIMBUKTU",1,pure,loc,3,0.782
1,5,13,study,"RIO DE JANEIRO",1,pure,loc,4,0.695
1,5,14,study,"IGUAZU FALLS",1,pure,loc,3,1.082
1,5,15,study,"ALAMO",1,pure,loc,3,0.747
1,5,16,study,"MACHU PICHU",1,pure,loc,4,0.826
1,5,17,study,"METLIFE BUILDING",1,pure,loc,3,0.91
1,5,18,study,"MAYAN PYRAMID",1,pure,loc,3,0.878
1,5,19,study,"SHANGHAI",1,pure,loc,4,0.709
1,5,20,study,"MOULIN ROUGE",1,pure,loc,4,0.686
1,5,21,study,"LINCOLN CENTER",1,pure,loc,2,1.202
1,5,22,study,"HARRODS",1,pure,loc,2,1.123
1,5,23,study,"FORBIDDEN CITY",1,pure,loc,2,0.819
1,5,24,study,"SORBONNE CHAPEL",1,pure,loc,2,0.901
1,5,1,recall,"SORBONNE CHAPEL",1,pure,loc,2,0.901
1,5,2,recall,"FORBIDDEN CITY",1,pure,loc,2,0.819
1,5,3,recall,"MACHU PICHU",1,pure,loc,4,0.826
1,5,4,recall,"HARRODS",1,pure,loc,2,1.123
1,5,5,recall,"ARUBA",1,pure,loc,3,0.661
1,5,6,recall,"IGUAZU FALLS",1,pure,loc,3,1.082
1,5,7,recall,"SHANGHAI",1,pure,loc,4,0.709
1,5,8,recall,"RIO DE JANEIRO",1,pure,loc,4,0.695
1,5,9,recall,"METLIFE BUILDING",1,pure,loc,3,0.91
1,5,10,recall,"LINCOLN FINANCIAL FIELD",1,pure,loc,3,0.838
1,5,11,recall,"SIERRA NEVADA",1,pure,loc,4,0.685
1,5,12,recall,"SALT LAKE TEMPLE",1,pure,loc,3,1.062
1,5,13,recall,"TIMBUKTU",1,pure,loc,3,0.782
1,6,1,study,"BARCODE SCANNER",1,mixed,obj,3,1.215
1,6,2,study,"BANDAID",1,mixed,obj,4,0.78
1,6,3,study,"TOM CRUISE",1,mixed,cel,4,0.649
1,6,4,study,"LINDSAY LOHAN",1,mixed,cel,4,0.77
1,6,5,study,"GEORGE WASHINGTON BRIDGE",1,mixed,loc,3,1.296
1,6,6,study,"MALL OF AMERICA",1,mixed,loc,4,0.903
1,6,7,study,"GREAT WALL OF CHINA",1,mixed,loc,3,0.714
1,6,8,study,"BRUCE WILLIS",1,mixed,cel,4,0.83
1,6,9,study,"AUDREY TATOU",1,mixed,cel,2,1.189
1,6,10,study,"GRACELAND",1,mixed,loc,2,1.277
1,6,11,study,"CHICAGO",1,mixed,loc,4,0.878
1,6,12,study,"NECKLACE",1,mixed,obj,3,0.608
1,6,13,study,"PEDAL",1,mixed,obj,3,1.068
1,6,14,study,"KATE WINSLET",1,mixed,cel,4,0.768
1,6,15,study,"CARY GRANT",1,mixed,cel,4,0.659
1,6,16,study,"MADONNA",1,mixed,cel,4,0.794
1,6,17,study,"SAMUEL L JACKSON",1,mixed,cel,4,0.728
1,6,18,study,"ROSE",1,mixed,obj,2,0.594
1,6,19,study,"CANOE",1,mixed,obj,1,1.198
1,6,20,study,"PAPER BAG",1,mixed,obj,1,0.973
1,6,21,study,"BELL",1,mixed,obj,2,0.865
1,6,22,study,"MADISON SQUARE GARDEN",1,mixed,loc,3,1.031
1,6,23,study,"ANGEL FALLS",1,mixed,loc,4,0.64
1,6,24,study,"MASADA",1,mixed,loc,3,0.602
1,6,1,recall,"MASADA",1,mixed,loc,3,0.602
1,6,2,recall,"ANGEL FALLS",1,mixed,loc,4,0.64
1,6,3,recall,"LINDSAY LOHAN",1,mixed,cel,4,0.77
1,6,4,recall,"TOM CRUISE",1,mixed,cel,4,0.649
1,6,5,recall,"MADONNA",1,mixed,cel,4,0.794
1,6,6,recall,"SAMUEL L JACKSON",1,mixed,cel,4,0.728
1,6,7,recall,"KATE WINSLET",1,mixed,cel,4,0.768
1,6,8,recall,"AUDREY TATOU",1,mixed,cel,2,1.189
1,6,9,recall,"MADISON SQUARE GARDEN",1,mixed,loc,3,1.031
1,6,10,recall,"CHICAGO",1,mixed,loc,4,0.878
1,6,11,recall,"BANDAID",1,mixed,obj,4,0.78
1,6,12,recall,"BARCODE SCANNER",1,mixed,obj,3,1.215
1,6,13,recall,"PAPER BAG",1,mixed,obj,1,0.973
1,7,1,study,"SHAQUILLE O'NEAL",1,pure,cel,4,1.205
1,7,2,study,"PRINCE",1,pure,cel,3,0.805
1,7,3,study,"JENNIFER ANISTON",1,pure,cel,4,0.686
1,7,4,study,"AL SHARPTON",1,pure,cel,3,0.851
1,7,5,study,"FRAN DRESCHER",1,pure,cel,4,0.707
1,7,6,study,"BRAD PITT",1,pure,cel,4,0.704
1,7,7,study,"VINCE VAUGHN",1,pure,cel,3,0.797
1,7,8,study,"LARRY KING",1,pure,cel,2,0.834
1,7,9,study,"DICK CHENEY",1,pure,cel,3,0.566
1,7,10,study,"HILLARY CLINTON",1,pure,cel,3,0.592
1,7,11,study,"CHARLIE SHEEN",1,pure,cel,4,0.545
1,7,12,study,"KURT COBAIN",1,pure,cel,3,0.737
1,7,13,study,"LUCY LIU",1,pure,cel,3,0.655
1,7,14,study,"MIKE TYSON",1,pure,cel,2,0.453
1,7,15,study,"COURTNEY LOVE",1,pure,cel,3,0.692
1,7,16,study,"MR. T",1,pure,cel,3,0.78
1,7,17,study,"SEAN COMBS",1,pure,cel,3,0.712
1,7,18,study,"JON VOIGHT",1,pure,cel,3,0.658
1,7,19,study,"JAMIE FOXX",1,pure,cel,3,0.756
1,7,20,study,"BENICIO DEL TORO",1,pure,cel,4,0.739
1,7,21,study,"JASON ALEXANDER",1,pure,cel,3,0.655
1,7,22,study,"SYLVESTER STALLONE",1,pure,cel,3,0.77
1,7,23,study,"HOWARD STERN",1,pure,cel,2,1.017
1,7,24,study,"SARAH JESSICA PARKER",1,pure,cel,4,0.976
1,7,1,recall,"SARAH JESSICA PARKER",1,pure,cel,4,0.976
1,7,2,recall,"KURT COBAIN",1,pure,cel,3,0.737
1,7,3,recall,"BRAD PITT",1,pure,cel,4,0.704
1,7,4,recall,"JENNIFER ANISTON",1,pure,cel,4,0.686
1,7,5,recall,"DICK CHENEY",1,pure,cel,3,0.566
1,7,6,recall,"HILLARY CLINTON",1,pure,cel,3,0.592
1,7,7,recall,"SYLVESTER STALLONE",1,pure,cel,3,0.77
1,7,8,recall,"JAMIE FOXX",1,pure,cel,3,0.756
1,7,9,recall,"SEAN COMBS",1,pure,cel,3,0.712
1,7,10,recall,"VINCE VAUGHN",1,pure,cel,3,0.797
1,7,11,recall,"CHARLIE SHEEN",1,pure,cel,4,0.545
1,7,12,recall,"COURTNEY LOVE",1,pure,cel,3,0.692
1,7,13,recall,"HOWARD STERN",1,pure,cel,2,1.017
1,7,14,recall,"JASON ALEXANDER",1,pure,cel,3,0.655
1,8,1,study,"MOUNT EVEREST",1,mixed,loc,4,0.847
1,8,2,study,"PHILADELPHIA ART MUSEUM",1,mixed,loc,2,1.122
1,8,3,study,"WASHINGTON SQUARE ARCH",1,mixed,loc,2,0.851
1,8,4,study,"KNIFE",1,mixed,obj,3,0.875
1,8,5,study,"ACORN",1,mixed,obj,2,0.997
1,8,6,study,"WHIP",1,mixed,obj,3,1.019
1,8,7,study,"MIKE MYERS",1,mixed,cel,4,0.749
1,8,8,study,"MARGARET THATCHER",1,mixed,cel,3,0.688
1,8,9,study,"MEG RYAN",1,mixed,cel,2,0.714
1,8,10,study,"CD",1,mixed,obj,3,0.649
1,8,11,study,"BOLT",1,mixed,obj,3,0.841
1,8,12,study,"GLOVES",1,mixed,obj,3,1.066
1,8,13,study,"LIPSTICK",1,mixed,obj,4,0.837
1,8,14,study,"PURSE",1,mixed,obj,4,0.583
1,8,15,study,"NATIONAL AQUARIUM",1,mixed,loc,2,0.872
1,8,16,study,"YOSEMITE",1,mixed,loc,3,0.58
1,8,17,study,"WIMBLEDON",1,mixed,loc,3,0.548
1,8,18,study,"COLONIAL WILLIAMSBURG",1,mixed,loc,3,0.768
1,8,19,study,"PETRA",1,mixed,loc,3,0.66
1,8,20,study,"HILARY DUFF",1,mixed,cel,4,0.758
1,8,21,study,"MERYL STREEP",1,mixed,cel,3,0.617
1,8,22,study,"HALLE BERRY",1,mixed,cel,4,0.668
1,8,23,study,"ANDRE AGASSI",1,mixed,cel,4,0.697
1,8,24,study,"DAVID BECKHAM",1,mixed,cel,4,0.908
1,8,1,recall,"DAVID BECKHAM",1,mixed,cel,4,0.908
1,8,2,recall,"ANDRE AGASSI",1,mixed,cel,4,0.697
1,8,3,recall,"HILARY DUFF",1,mixed,cel,4,0.758
1,8,4,recall,"HALLE BERRY",1,mixed,cel,4,0.668
1,8,5,recall,"YOSEMITE",1,mixed,loc,3,0.58
1,8,6,recall,"PHILADELPHIA ART MUSEUM",1,mixed,loc,2,1.122
1,8,7,recall,"WHIP",1,mixed,obj,3,1.019
1,8,8,recall,"KNIFE",1,mixed,obj,3,0.875
1,8,9,recall,"MOUNT EVEREST",1,mixed,loc,4,0.847
1,8,10,recall,"WIMBLEDON",1,mixed,loc,3,0.548
1,8,11,recall,"MERYL STREEP",1,mixed,cel,3,0.617
1,9,1,study,"SMITHSONIAN CASTLE",1,mixed,loc,3,1.463
1,9,2,study,"SKYDOME",1,mixed,loc,3,0.726
1,9,3,study,"UMBRELLA",1,mixed,obj,4,0.618
1,9,4,study,"DEODORANT",1,mixed,obj,3,0.498
1,9,5,study,"BENJAMIN FRANKLIN",1,mixed,cel,2,0.542
1,9,6,study,"DAN RATHER",1,mixed,cel,3,0.634
1,9,7,study,"VIENNA",1,mixed,loc,3,0.751
1,9,8,study,"PLACE DE LA CONCORDE",1,mixed,loc,3,0.705
1,9,9,study,"GREAT SALT LAKE",1,mixed,loc,2,0.716
1,9,10,study,"SIENA",1,mixed,loc,3,0.579
1,9,11,study,"GLOBE",1,mixed,obj,3,0.681
1,9,12,study,"IPOD",1,mixed,obj,4,0.908
1,9,13,study,"VEST",1,mixed,obj,4,0.682
1,9,14,study,"BOWLING BALL",1,mixed,obj,4,1.096
1,9,15,study,"CONDOLEEZZA RICE",1,mixed,cel,3,0.701
1,9,16,study,"BRUCE SPRINGSTEEN",1,mixed,cel,3,0.708
1,9,17,study,"UMA THURMAN",1,mixed,cel,4,0.721
1,9,18,study,"DAVID HASSELHOFF",1,mixed,cel,2,0.719
1,9,19,study,"SPORK",1,mixed,obj,3,0.626
1,9,20,study,"GRILL",1,mixed,obj,4,0.737
1,9,21,study,"LONDON EYE",1,mixed,loc,3,0.591
1,9,22,study,"SAHARA",1,mixed,loc,3,0.56
1,9,23,study,"MICHAEL DOUGLAS",1,mixed,cel,3,0.709
1,9,24,study,"ROSEANNE BARR",1,mixed,cel,2,0.833
1,9,1,recall,"ROSEANNE BARR",1,mixed,cel,2,0.833
1,9,2,recall,"MICHAEL DOUGLAS",1,mixed,cel,3,0.709
1,9,3,recall,"SAHARA",1,mixed,loc,3,0.56
1,9,4,recall,"SIENA",1,mixed,loc,3,0.579
1,9,5,recall,"VIENNA",1,mixed,loc,3,0.751
1,9,6,recall,"BRUCE SPRINGSTEEN",1,mixed,cel,3,0.708
1,9,7,recall,"CONDOLEEZZA RICE",1,mixed,cel,3,0.701
1,9,8,recall,"BOWLING BALL",1,mixed,obj,4,1.096
1,9,9,recall,"VEST",1,mixed,obj,4,0.682
1,9,10,recall,"UMA THURMAN",1,mixed,cel,4,0.721
1,9,11,recall,"ROSEANNE BARR",1,mixed,cel,2,0.833
1,9,12,recall,"MICHAEL DOUGLAS",1,mixed,cel,3,0.709
1,9,13,recall,"DAN RATHER",1,mixed,cel,3,0.634
1,10,1,study,"ANTHONY HOPKINS",1,mixed,cel,4,0.792
1,10,2,study,"ALEC BALDWIN",1,mixed,cel,4,0.857
1,10,3,study,"JACK BLACK",1,mixed,cel,3,0.801
1,10,4,study,"THE VENETIAN",1,mixed,loc,4,0.949
1,10,5,study,"GLOBE THEATER",1,mixed,loc,2,0.749
1,10,6,study,"NEST",1,mixed,obj,1,1.485
1,10,7,study,"STAPLE REMOVER",1,mixed,obj,3,1.106
1,10,8,study,"GOBLET",1,mixed,obj,2,0.779
1,10,9,study,"FLORENCE",1,mixed,loc,3,0.847
1,10,10,study,"BARCELONA CATHEDRAL",1,mixed,loc,4,0.805
1,10,11,study,"GEORGE W BUSH",1,mixed,cel,3,0.671
1,10,12,study,"QUEEN ELIZABETH",1,mixed,cel,3,1.132
1,10,13,study,"MATT DAMON",1,mixed,cel,4,0.727
1,10,14,study,"TWEEZERS",1,mixed,obj,2,0.572
1,10,15,study,"HIGHLIGHTER",1,mixed,obj,4,0.928
1,10,16,study,"VASE",1,mixed,obj,3,0.675
1,10,17,study,"WALL STREET",1,mixed,loc,3,0.578
1,10,18,study,"HOLLYWOOD",1,mixed,loc,4,0.75
1,10,19,study,"KYOTO",1,mixed,loc,3,0.471
1,10,20,study,"WRIGLEY BUILDING",1,mixed,loc,4,0.569
1,10,21,study,"PEPPER",1,mixed,obj,2,0.541
1,10,22,study,"BOTTLE",1,mixed,obj,3,0.515
1,10,23,study,"DOLLY PARTON",1,mixed,cel,4,0.601
1,10,24,study,"BILL MAHER",1,mixed,cel,2,0.448
1,10,1,recall,"BILL MAHER",1,mixed,cel,2,0.448
1,10,2,recall,"DOLLY PARTON",1,mixed,cel,4,0.601
1,10,3,recall,"MARTIN SHEEN",1,mixed,,NaN,NaN
1,10,4,recall,"MATT DAMON",1,mixed,cel,4,0.727
1,10,5,recall,"THE VENETIAN",1,mixed,loc,4,0.949
1,10,6,recall,"STAPLE REMOVER",1,mixed,obj,3,1.106
1,10,7,recall,"HIGHLIGHTER",1,mixed,obj,4,0.928
1,10,8,recall,"UMBRELLA",1,mixed,obj,4,0.618
1,11,1,study,"FRIDGE",1,mixed,obj,4,0.994
1,11,2,study,"GAS MASK",1,mixed,obj,1,1.109
1,11,3,study,"PENCIL SHARPENER",1,mixed,obj,3,0.701
1,11,4,study,"AXE",1,mixed,obj,1,0.976
1,11,5,study,"PHILADELPHIA CITY HALL",1,mixed,loc,2,1.204
1,11,6,study,"LENIN MAUSOLEUM",1,mixed,loc,2,0.796
1,11,7,study,"PETRONAS TOWERS",1,mixed,loc,3,0.638
1,11,8,study,"MATTHEW PERRY",1,mixed,cel,4,0.866
1,11,9,study,"RICHARD NIXON",1,mixed,cel,3,0.6
1,11,10,study,"ACADIA PARK",1,mixed,loc,4,0.736
1,11,11,study,"CAMDEN YARDS",1,mixed,loc,2,0.486
1,11,12,study,"ATOMIUM",1,mixed,loc,3,0.467
1,11,13,study,"TAJ MAHAL",1,mixed,loc,4,0.676
1,11,14,study,"POMPEI",1,mixed,loc,3,0.696
1,11,15,study,"DEMI MOORE",1,mixed,cel,4,0.67
1,11,16,study,"CARROT TOP",1,mixed,cel,3,0.531
1,11,17,study,"STEVE MARTIN",1,mixed,cel,3,0.568
1,11,18,study,"JOHN TRAVOLTA",1,mixed,cel,4,0.746
1,11,19,study,"RICKY MARTIN",1,mixed,cel,4,0.674
1,11,20,study,"MARTIN LUTHER KING JR",1,mixed,cel,3,0.486
1,11,21,study,"CANDLE",1,mixed,obj,2,0.761
1,11,22,study,"HAT",1,mixed,obj,3,0.758
1,11,23,study,"BED",1,mixed,obj,4,0.649
1,11,24,study,"NEWSPAPER",1,mixed,obj,3,0.606
1,11,1,recall,"NEWSPAPER",1,mixed,obj,3,0.606
1,11,2,recall,"FRIDGE",1,mixed,obj,4,0.994
1,11,3,recall,"PENCIL SHARPENER",1,mixed,obj,3,0.701
1,11,4,recall,"DEMI MOORE",1,mixed,cel,4,0.67
1,11,5,recall,"JOHN TRAVOLTA",1,mixed,cel,4,0.746
1,11,6,recall,"STEVE MARTIN",1,mixed,cel,3,0.568
1,11,7,recall,"RICHARD NIXON",1,mixed,cel,3,0.6
1,12,1,study,"FENWAY PARK",1,pure,loc,3,0.944
1,12,2,study,"VICTORIA FALLS",1,pure,loc,4,1.026
1,12,3,study,"SYDNEY OPERA HOUSE",1,pure,loc,4,0.707
1,12,4,study,"EPCOT CENTER",1,pure,loc,3,0.561
1,12,5,study,"GATEWAY ARCH",1,pure,loc,4,0.783
1,12,6,study,"CAPE OF GOOD HOPE",1,pure,loc,4,0.886
1,12,7,study,"GREAT BARRIER REEF",1,pure,loc,4,0.743
1,12,8,study,"SMOKY MOUNTAINS",1,pure,loc,3,0.601
1,12,9,study,"QUEBEC",1,pure,loc,2,0.877
1,12,10,study,"BOSTON COMMON",1,pure,loc,3,0.723
1,12,11,study,"IWO JIMA MEMORIAL",1,pure,loc,3,0.776
1,12,12,study,"SALT FLATS",1,pure,loc,3,0.587
1,12,13,study,"INDEPENDENCE HALL",1,pure,loc,3,0.57
1,12,14,study,"SERENGETI PLAIN",1,pure,loc,2,0.608
1,12,15,study,"BLUE MOSQUE",1,pure,loc,3,0.774
1,12,16,study,"NAPA VALLEY",1,pure,loc,2,0.586
1,12,17,study,"SISTINE CHAPEL",1,pure,loc,3,0.676
1,12,18,study,"KREMLIN",1,pure,loc,3,0.736
1,12,19,study,"WINTER PALACE",1,pure,loc,2,0.726
1,12,20,study,"MGM GRAND",1,pure,loc,4,0.936
1,12,21,study,"MONTMARTRE",1,pure,loc,3,0.802
1,12,22,study,"BOURBON STREET",1,pure,loc,3,0.785
1,12,23,study,"GIZA PYRAMIDS",1,pure,loc,2,0.384
1,12,24,study,"DEAD SEA",1,pure,loc,3,0.392
1,12,1,recall,"DEAD SEA",1,pure,loc,3,0.392
1,12,2,recall,"GIZA PYRAMIDS",1,pure,loc,2,0.384
1,12,3,recall,"SYDNEY OPERA HOUSE",1,pure,loc,4,0.707
1,12,4,recall,"GREAT BARRIER REEF",1,pure,loc,4,0.743
1,12,5,recall,"CAPE OF GOOD HOPE",1,pure,loc,4,0.886
1,12,6,recall,"GREAT SALT PLAINS",1,pure,,NaN,NaN
1,12,7,recall,"SERENGETI PLAIN",1,pure,loc,2,0.608
1,12,8,recall,"SMOKY MOUNTAINS",1,pure,loc,3,0.601
1,12,9,recall,"GATEWAY ARCH",1,pure,loc,4,0.783
1,12,10,recall,"VICTORIA FALLS",1,pure,loc,4,1.026
1,12,11,recall,"SISTINE CHAPEL",1,pure,loc,3,0.676
1,12,12,recall,"WINTER PALACE",1,pure,loc,2,0.726
1,12,13,recall,"MGM GRAND",1,pure,loc,4,0.936
1,13,1,study,"NORMAN SCHWARZKOPF",1,mixed,cel,3,0.99
1,13,2,study,"REESE WITHERSPOON",1,mixed,cel,4,0.916
1,13,3,study,"DRESSER",1,mixed,obj,2,0.596
1,13,4,study,"COUCH",1,mixed,obj,3,0.638
1,13,5,study,"TENT",1,mixed,obj,1,1.14
1,13,6,study,"BOWL",1,mixed,obj,4,0.969
1,13,7,study,"REDWOOD FOREST",1,mixed,loc,1,1.172
1,13,8,study,"PACIFIC BELL PARK",1,mixed,loc,3,0.578
1,13,9,study,"EMPIRE STATE BUILDING",1,mixed,loc,4,1
1,13,10,study,"MONTICELLO",1,mixed,loc,2,0.894
1,13,11,study,"TOBEY MAGUIRE",1,mixed,cel,4,0.844
1,13,12,study,"JIM BELUSHI",1,mixed,cel,3,0.706
1,13,13,study,"JOHN LITHGOW",1,mixed,cel,3,0.791
1,13,14,study,"MICK JAGGER",1,mixed,cel,3,0.741
1,13,15,study,"TINA TURNER",1,mixed,cel,3,0.651
1,13,16,study,"WILL FERRELL",1,mixed,cel,2,0.44
1,13,17,study,"TIRE",1,mixed,obj,3,0.731
1,13,18,study,"HANDLE",1,mixed,obj,3,0.983
1,13,19,study,"MICROCHIP",1,mixed,obj,4,0.878
1,13,20,study,"BUGLE",1,mixed,obj,1,0.875
1,13,21,study,"OAHU BEACH",1,mixed,loc,4,0.979
1,13,22,study,"DOME OF THE ROCK",1,mixed,loc,3,0.764
1,13,23,study,"GRAND TETON PARK",1,mixed,loc,3,0.955
1,13,24,study,"ETHIOPIAN CHURCH",1,mixed,loc,2,0.843
1,13,1,recall,"ETHIOPIAN CHURCH",1,mixed,loc,2,0.843
1,13,2,recall,"REESE WITHERSPOON",1,mixed,cel,4,0.916
1,13,3,recall,"REDWOOD FOREST",1,mixed,loc,1,1.172
1,13,4,recall,"MICK JAGGER",1,mixed,cel,3,0.741
1,13,5,recall,"TOBEY MAGUIRE",1,mixed,cel,4,0.844
1,13,6,recall,"BOWL",1,mixed,obj,4,0.969
1,13,7,recall,"DRESSER",1,mixed,obj,2,0.596
1,13,8,recall,"COUCH",1,mixed,obj,3,0.638
1,13,9,recall,"TINA TURNER",1,mixed,cel,3,0.651
1,14,1,study,"MEDAL",1,pure,obj,2,1.051
1,14,2,study,"MAGNET",1,pure,obj,2,1.076
1,14,3,study,"LIGHTBULB",1,pure,obj,3,0.832
1,14,4,study,"WINDOW",1,pure,obj,4,0.87
1,14,5,study,"FIRE EXTINGUISHER",1,pure,obj,3,0.66
1,14,6,study,"BLOWDRYER",1,pure,obj,2,0.801
1,14,7,study,"WREATH",1,pure,obj,3,0.547
1,14,8,study,"BIRDHOUSE",1,pure,obj,2,0.676
1,14,9,study,"HIGH CHAIR",1,pure,obj,4,0.952
1,14,10,study,"KEYS",1,pure,obj,4,0.915
1,14,11,study,"WHISTLE",1,pure,obj,2,1.109
1,14,12,study,"TV",1,pure,obj,3,0.653
1,14,13,study,"BICYCLE",1,pure,obj,3,0.659
1,14,14,study,"BOOK",1,pure,obj,3,0.651
1,14,15,study,"MAYONNAISE",1,pure,obj,3,0.92
1,14,16,study,"EARRINGS",1,pure,obj,3,0.567
1,14,17,study,"ROPE",1,pure,obj,3,0.733
1,14,18,study,"PIE",1,pure,obj,3,0.647
1,14,19,study,"SHOE",1,pure,obj,4,0.926
1,14,20,study,"LEAF",1,pure,obj,3,0.709
1,14,21,study,"BOUQUET",1,pure,obj,3,0.767
1,14,22,study,"BASKET",1,pure,obj,2,0.588
1,14,23,study,"LEMON",1,pure,obj,3,0.568
1,14,24,study,"HAMMER",1,pure,obj,2,0.547
1,14,1,recall,"HAMMER",1,pure,obj,2,0.547
1,14,2,recall,"PIE",1,pure,obj,3,0.647
1,14,3,recall,"WINDOW",1,pure,obj,4,0.87
1,14,4,recall,"LEAF",1,pure,obj,3,0.709
1,14,5,recall,"LIGHTBULB",1,pure,obj,3,0.832
1,14,6,recall,"TV",1,pure,obj,3,0.653
1,15,1,study,"BONO",1,pure,cel,2,1.01
1,15,2,study,"ANNETTE BENING",1,pure,cel,4,0.753
1,15,3,study,"GARTH BROOKS",1,pure,cel,3,0.98
1,15,4,study,"WAYNE GRETZKY",1,pure,cel,3,0.819
1,15,5,study,"CAMERON DIAZ",1,pure,cel,4,0.69
1,15,6,study,"KIRSTEN DUNST",1,pure,cel,4,0.65
1,15,7,study,"JON STEWART",1,pure,cel,3,0.673
1,15,8,study,"GWYNETH PALTROW",1,pure,cel,4,0.624
1,15,9,study,"LEONARDO DICAPRIO",1,pure,cel,4,0.914
1,15,10,study,"ROBIN WILLIAMS",1,pure,cel,3,0.638
1,15,11,study,"SCARLETT JOHANSSON",1,pure,cel,4,0.598
1,15,12,study,"JIM MORRISON",1,pure,cel,3,0.577
1,15,13,study,"KEANU REEVES",1,pure,cel,3,0.747
1,15,14,study,"BRUCE LEE",1,pure,cel,3,0.396
1,15,15,study,"DENZEL WASHINGTON",1,pure,cel,3,0.807
1,15,16,study,"DANE COOK",1,pure,cel,3,1.019
1,15,17,study,"MICHAEL MOORE",1,pure,cel,3,0.545
1,15,18,study,"CHARLIZE THERON",1,pure,cel,4,0.553
1,15,19,study,"HELEN HUNT",1,pure,cel,4,0.773
1,15,20,study,"OPRAH WINFREY",1,pure,cel,4,0.618
1,15,21,study,"TOM BROKAW",1,pure,cel,2,0.706
1,15,22,study,"ANTONIO BANDERAS",1,pure,cel,3,0.699
1,15,23,study,"PARIS HILTON",1,pure,cel,4,0.659
1,15,24,study,"JENNIFER LOPEZ",1,pure,cel,4,0.783
1,15,1,recall,"JENNIFER LOPEZ",1,pure,cel,4,0.783
1,15,2,recall,"PARIS HILTON",1,pure,cel,4,0.659
1,15,3,recall,"CHARLIZE THERON",1,pure,cel,4,0.553
1,15,4,recall,"SCARLETT JOHANSSON",1,pure,cel,4,0.598
1,15,5,recall,"OPRAH WINFREY",1,pure,cel,4,0.618
1,15,6,recall,"DENZEL WASHINGTON",1,pure,cel,3,0.807
1,15,7,recall,"ANTONIO BANDERAS",1,pure,cel,3,0.699
1,15,8,recall,"HELEN HUNT",1,pure,cel,4,0.773
1,15,9,recall,"ANNETTE BENING",1,pure,cel,4,0.753
1,15,10,recall,"BONO",1,pure,cel,2,1.01
1,15,11,recall,"KIRSTEN DUNST",1,pure,cel,4,0.65
1,16,1,study,"KAUFMAN STADIUM",1,mixed,loc,2,0.862
1,16,2,study,"ROCK AND ROLL HALL OF FAME",1,mixed,loc,3,0.825
1,16,3,study,"LUXOR HOTEL",1,mixed,loc,2,0.65
1,16,4,study,"TRIPOD",1,mixed,obj,3,0.577
1,16,5,study,"SAUCEPAN",1,mixed,obj,4,0.699
1,16,6,study,"MAILBOX",1,mixed,obj,4,0.691
1,16,7,study,"MICHAEL JORDAN",1,mixed,cel,4,0.772
1,16,8,study,"DUSTIN HOFFMAN",1,mixed,cel,4,0.894
1,16,9,study,"CONAN O'BRIEN",1,mixed,cel,2,0.716
1,16,10,study,"JEANS",1,mixed,obj,3,0.67
1,16,11,study,"SWORD",1,mixed,obj,1,1.137
1,16,12,study,"COLIN POWELL",1,mixed,cel,4,0.785
1,16,13,study,"ALLEN IVERSON",1,mixed,cel,3,0.859
1,16,14,study,"JOHN HANCOCK CENTER",1,mixed,loc,4,0.793
1,16,15,study,"PENTAGON",1,mixed,loc,2,0.642
1,16,16,study,"STEVEN SPIELBERG",1,mixed,cel,3,0.606
1,16,17,study,"MEL GIBSON",1,mixed,cel,4,0.842
1,16,18,study,"JACKIE KENNEDY",1,mixed,cel,4,0.826
1,16,19,study,"THERMOMETER",1,mixed,obj,3,0.665
1,16,20,study,"RING",1,mixed,obj,4,0.633
1,16,21,study,"WAFFLE",1,mixed,obj,4,0.74
1,16,22,study,"SUEZ CANAL",1,mixed,loc,4,0.707
1,16,23,study,"AYERS ROCK",1,mixed,loc,2,0.827
1,16,24,study,"CN TOWER",1,mixed,loc,3,0.887
1,16,1,recall,"CN TOWER",1,mixed,loc,3,0.887
1,16,2,recall,"SUEZ CANAL",1,mixed,loc,4,0.707
1,16,3,recall,"MICHAEL JORDAN",1,mixed,cel,4,0.772
1,16,4,recall,"JOHN HANCOCK CENTER",1,mixed,loc,4,0.793
1,16,5,recall,"LUXOR HOTEL",1,mixed,loc,2,0.65
1,17,1,study,"LINCOLN FINANCIAL FIELD",2,mixed,loc,3,1.031
1,17,2,study,"MAMMOTH CAVE",2,mixed,loc,3,1.072
1,17,3,study,"MOUNT BLANC",2,mixed,loc,3,0.726
1,17,4,study,"QUINCY MARKET",2,mixed,loc,2,0.71
1,17,5,study,"KEYS",2,mixed,obj,4,1.243
1,17,6,study,"WATER GUN",2,mixed,obj,3,0.763
1,17,7,study,"HIGH CHAIR",2,mixed,obj,2,1.132
1,17,8,study,"APPLE",2,mixed,obj,4,0.851
1,17,9,study,"REESE WITHERSPOON",2,mixed,cel,4,1.182
1,17,10,study,"HUGH GRANT",2,mixed,cel,4,0.699
1,17,11,study,"JIMI HENDRIX",2,mixed,cel,2,1.085
1,17,12,study,"LANCE ARMSTRONG",2,mixed,cel,3,0.89
1,17,13,study,"ARUBA",2,mixed,loc,4,0.911
1,17,14,study,"NEWGRANGE",2,mixed,loc,2,0.939
1,17,15,study,"GRAND OLE OPRY",2,mixed,loc,2,0.901
1,17,16,study,"FISHERMAN'S WHARF",2,mixed,loc,2,0.732
1,17,17,study,"RAZOR",2,mixed,obj,3,1.08
1,17,18,study,"NEWSPAPER",2,mixed,obj,4,0.971
1,17,19,study,"ICE",2,mixed,obj,4,0.838
1,17,20,study,"ALLENWRENCH",2,mixed,obj,2,1.041
1,17,21,study,"MIKE MYERS",2,mixed,cel,3,0.769
1,17,22,study,"DEBRA MESSING",2,mixed,cel,3,0.864
1,17,23,study,"JOHN TRAVOLTA",2,mixed,cel,2,0.892
1,17,24,study,"HALEY JOEL OSMENT",2,mixed,cel,3,0.788
1,17,1,recall,"HALEY JOEL OSMENT",2,mixed,cel,3,0.788
1,17,2,recall,"DEBRA MESSING",2,mixed,cel,3,0.864
1,17,3,recall,"REESE WITHERSPOON",2,mixed,cel,4,1.182
1,17,4,recall,"HUGH GRANT",2,mixed,cel,4,0.699
1,17,5,recall,"JOHN TRAVOLTA",2,mixed,cel,2,0.892
1,17,6,recall,"ICE",2,mixed,obj,4,0.838
1,17,7,recall,"NEWSPAPER",2,mixed,obj,4,0.971
1,17,8,recall,"WATER GUN",2,mixed,obj,3,0.763
1,17,9,recall,"KEYS",2,mixed,obj,4,1.243
1,17,10,recall,"FISHERMAN'S WHARF",2,mixed,loc,2,0.732
1,17,11,recall,"GRAND OLE OPRY",2,mixed,loc,2,0.901
1,17,12,recall,"ARUBA",2,mixed,loc,4,0.911
1,18,1,study,"WHITE CLIFFS OF DOVER",2,pure,loc,2,1.077
1,18,2,study,"VENICE",2,pure,loc,3,0.917
1,18,3,study,"OLD FAITHFUL",2,pure,loc,3,0.974
1,18,4,study,"SOHO",2,pure,loc,2,0.931
1,18,5,study,"TIMES SQUARE",2,pure,loc,3,0.805
1,18,6,study,"PHILADELPHIA CITY HALL",2,pure,loc,2,1.046
1,18,7,study,"COLONIAL WILLIAMSBURG",2,pure,loc,2,0.875
1,18,8,study,"ATLANTIC CITY",2,pure,loc,3,0.874
1,18,9,study,"OXFORD",2,pure,loc,2,0.749
1,18,10,study,"GRAND CENTRAL STATION",2,pure,loc,3,0.82
1,18,11,study,"KREMLIN",2,pure,loc,2,0.858
1,18,12,study,"PEARL HARBOR",2,pure,loc,4,1.118
1,18,13,study,"THE VENETIAN",2,pure,loc,4,1.083
1,18,14,study,"HOOVER DAM",2,pure,loc,2,0.722
1,18,15,study,"CANCUN",2,pure,loc,4,0.893
1,18,16,study,"SAN FRANCISCO",2,pure,loc,4,0.757
1,18,17,study,"UNITED NATIONS BUILDING",2,pure,loc,2,1.083
1,18,18,study,"HARRODS",2,pure,loc,1,0.941
1,18,19,study,"ST PAULS CATHEDRAL",2,pure,loc,1,0.918
1,18,20,study,"INDIANAPOLIS MOTOR SPEEDWAY",2,pure,loc,3,0.967
1,18,21,study,"GREAT ZIMBABWE RUINS",2,pure,loc,2,0.978
1,18,22,study,"STATUE OF LIBERTY",2,pure,loc,2,0.671
1,18,23,study,"MECCA",2,pure,loc,3,0.969
1,18,24,study,"ATOMIUM",2,pure,loc,2,0.708
1,18,1,recall,"ATOMIUM",2,pure,loc,2,0.708
1,18,2,recall,"MECCA",2,pure,loc,3,0.969
1,18,3,recall,"STATUE OF LIBERTY",2,pure,loc,2,0.671
1,18,4,recall,"HOOVER DAM",2,pure,loc,2,0.722
1,18,5,recall,"CANCUN",2,pure,loc,4,0.893
1,18,6,recall,"TIMES SQUARE",2,pure,loc,3,0.805
1,18,7,recall,"GRAND CENTRAL STATION",2,pure,loc,3,0.82
1,18,8,recall,"COLONIAL WILLIAMSBURG",2,pure,loc,2,0.875
1,18,9,recall,"VENICE",2,pure,loc,3,0.917
1,18,10,recall,"THE VENETIAN",2,pure,loc,4,1.083
1,18,11,recall,"OLD FAITHFUL",2,pure,loc,3,0.974
1,18,12,recall,"UNITED NATIONS BUILDING",2,pure,loc,2,1.083
1,18,13,recall,"ZIMBABWE_RUINS",2,pure,,NaN,NaN
1,18,14,recall,"ST PAULS CATHEDRAL",2,pure,loc,1,0.918
1,19,1,study,"DWIGHT EISENHOWER",2,mixed,cel,2,0.883
1,19,2,study,"JAMIE FOXX",2,mixed,cel,3,0.747
1,19,3,study,"DREW BARRYMORE",2,mixed,cel,3,0.808
1,19,4,study,"CHRISTOPHER REEVE",2,mixed,cel,3,0.814
1,19,5,study,"WAILING WALL",2,mixed,loc,2,0.767
1,19,6,study,"TREVI FOUNTAIN",2,mixed,loc,2,0.871
1,19,7,study,"VIOLIN",2,mixed,obj,3,0.82
1,19,8,study,"LIGHTER",2,mixed,obj,2,1.199
1,19,9,study,"CANOE",2,mixed,obj,2,0.647
1,19,10,study,"JACKET",2,mixed,obj,3,0.809
1,19,11,study,"DRESSER",2,mixed,obj,4,0.792
1,19,12,study,"SARAH JESSICA PARKER",2,mixed,cel,4,0.745
1,19,13,study,"ALLEN IVERSON",2,mixed,cel,3,0.859
1,19,14,study,"ANTHONY HOPKINS",2,mixed,cel,3,1.075
1,19,15,study,"ANNETTE BENING",2,mixed,cel,3,0.846
1,19,16,study,"TAJ MAHAL",2,mixed,loc,4,0.891
1,19,17,study,"IWO JIMA MEMORIAL",2,mixed,loc,2,1.093
1,19,18,study,"PANAMA CANAL",2,mixed,loc,3,0.878
1,19,19,study,"PETRIFIED FOREST",2,mixed,loc,2,0.974
1,19,20,study,"TIMBUKTU",2,mixed,loc,2,0.761
1,19,21,study,"PACIFIC BELL PARK",2,mixed,loc,2,0.921
1,19,22,study,"BOOK",2,mixed,obj,3,0.95
1,19,23,study,"SHAMPOO",2,mixed,obj,2,0.518
1,19,24,study,"PILL",2,mixed,obj,3,0.725
1,19,1,recall,"SHAMPOO",2,mixed,obj,2,0.518
1,19,2,recall,"PILL",2,mixed,obj,3,0.725
1,19,3,recall,"DRESSER",2,mixed,obj,4,0.792
1,19,4,recall,"ANNETTE",2,mixed,cel,3,0.846
1,19,5,recall,"ANTHONY",2,mixed,cel,3,1.075
1,19,6,recall,"JAMIE",2,mixed,cel,3,0.747
1,19,7,recall,"SARAH",2,mixed,cel,4,0.745
1,19,8,recall,"DREW",2,mixed,cel,3,0.808
1,19,9,recall,"DWIGHT",2,mixed,cel,2,0.883
1,19,10,recall,"TAJ",2,mixed,loc,4,0.891
1,19,11,recall,"PANAMA",2,mixed,loc,3,0.878
1,19,12,recall,"TIMBUKTU",2,mixed,loc,2,0.761
1,19,13,recall,"PILL",2,mixed,obj,3,0.725
1,19,14,recall,"SHAMPOO",2,mixed,obj,2,0.518
1,19,15,recall,"JACKET",2,mixed,obj,3,0.809
1,19,16,recall,"CANOE",2,mixed,obj,2,0.647
1,19,17,recall,"VIOLIN",2,mixed,obj,3,0.82
1,20,1,study,"MAHATMA GANDHI",2,pure,cel,4,0.808
1,20,2,study,"ALEX RODRIGUEZ",2,pure,cel,2,0.91
1,20,3,study,"JENNIFER ANISTON",2,pure,cel,4,0.726
1,20,4,study,"JON VOIGHT",2,pure,cel,2,0.813
1,20,5,study,"ALBERT EINSTEIN",2,pure,cel,3,1.013
1,20,6,study,"ROBERT REDFORD",2,pure,cel,2,0.805
1,20,7,study,"BENJAMIN FRANKLIN",2,pure,cel,3,0.752
1,20,8,study,"STEPHEN COLBERT",2,pure,cel,2,0.929
1,20,9,study,"FAITH HILL",2,pure,cel,3,0.703
1,20,10,study,"SAMUEL L JACKSON",2,pure,cel,3,0.682
1,20,11,study,"JASON BIGGS",2,pure,cel,2,0.775
1,20,12,study,"MATTHEW PERRY",2,pure,cel,3,0.919
1,20,13,study,"DUSTIN HOFFMAN",2,pure,cel,3,0.819
1,20,14,study,"MARTIN LUTHER KING JR",2,pure,cel,2,0.653
1,20,15,study,"DENZEL WASHINGTON",2,pure,cel,3,0.614
1,20,16,study,"MARILYN MONROE",2,pure,cel,3,0.555
1,20,17,study,"MIKE TYSON",2,pure,cel,3,0.485
1,20,18,study,"DALAI LAMA",2,pure,cel,2,0.979
1,20,19,study,"CHARLIE SHEEN",2,pure,cel,2,0.7
1,20,20,study,"CONDOLEEZZA RICE",2,pure,cel,3,0.646
1,20,21,study,"JOAQUIN PHOENIX",2,pure,cel,2,0.654
1,20,22,study,"ADAM SANDLER",2,pure,cel,2,0.793
1,20,23,study,"LISA KUDROW",2,pure,cel,3,0.735
1,20,24,study,"KOBE BRYANT",2,pure,cel,2,0.691
1,20,1,recall,"KOBE BRYANT",2,pure,cel,2,0.691
1,20,2,recall,"LISA KUDROW",2,pure,cel,3,0.735
1,20,3,recall,"JASON BIGGS",2,pure,cel,2,0.775
1,20,4,recall,"ADAM SANDLER",2,pure,cel,2,0.793
1,20,5,recall,"DENZEL WASHINGTON",2,pure,cel,3,0.614
1,20,6,recall,"MAHATMA GANDHI",2,pure,cel,4,0.808
1,20,7,recall,"JENNIFER ANISTON",2,pure,cel,4,0.726
1,20,8,recall,"MATTHEW PERRY",2,pure,cel,3,0.919
1,20,9,recall,"CONDOLEEZZA RICE",2,pure,cel,3,0.646
1,20,10,recall,"BENJAMIN FRANKLIN",2,pure,cel,3,0.752
1,20,11,recall,"DALAI LAMA",2,pure,cel,2,0.979
1,20,12,recall,"JOAQUIN PHOENIX",2,pure,cel,2,0.654
1,20,13,recall,"JON VOIGHT",2,pure,cel,2,0.813
1,20,14,recall,"MARTIN LUTHER KING JR",2,pure,cel,2,0.653
1,20,15,recall,"ALBERT EINSTEIN",2,pure,cel,3,1.013
1,20,16,recall,"MARILYN MONROE",2,pure,cel,3,0.555
1,20,17,recall,"STEPHEN COLBERT",2,pure,cel,2,0.929
1,21,1,study,"BARBARA WALTERS",2,mixed,cel,3,1.158
1,21,2,study,"HULK HOGAN",2,mixed,cel,2,0.684
1,21,3,study,"CHRIS FARLEY",2,mixed,cel,2,0.71
1,21,4,study,"CHAIR",2,mixed,obj,4,1.011
1,21,5,study,"QUARTER",2,mixed,obj,4,0.784
1,21,6,study,"WALKMAN",2,mixed,obj,4,0.923
1,21,7,study,"SYDNEY OPERA HOUSE",2,mixed,loc,3,1.003
1,21,8,study,"ACADIA PARK",2,mixed,loc,2,1.152
1,21,9,study,"GUM",2,mixed,obj,4,1.022
1,21,10,study,"PRINTER",2,mixed,obj,2,0.791
1,21,11,study,"GRAND CANYON",2,mixed,loc,4,0.928
1,21,12,study,"ROCKEFELLER CENTER",2,mixed,loc,3,0.528
1,21,13,study,"PETRA",2,mixed,loc,2,0.469
1,21,14,study,"LONDON DUNGEON",2,mixed,loc,3,0.464
1,21,15,study,"SCARLETT JOHANSSON",2,mixed,cel,3,0.887
1,21,16,study,"TOM HANKS",2,mixed,cel,3,0.671
1,21,17,study,"ROMAN FORUM",2,mixed,loc,3,0.682
1,21,18,study,"ANGEL FALLS",2,mixed,loc,3,0.497
1,21,19,study,"FLOWERPOT",2,mixed,obj,3,0.972
1,21,20,study,"THERMOMETER",2,mixed,obj,2,1.116
1,21,21,study,"PAPER BAG",2,mixed,obj,3,0.745
1,21,22,study,"MEG RYAN",2,mixed,cel,2,0.707
1,21,23,study,"STEVE MARTIN",2,mixed,cel,4,0.703
1,21,24,study,"JOE DIMAGGIO",2,mixed,cel,3,0.681
1,21,1,recall,"JOE DIMAGGIO",2,mixed,cel,3,0.681
1,21,2,recall,"STEVE MARTIN",2,mixed,cel,4,0.703
1,21,3,recall,"TOM HANKS",2,mixed,cel,3,0.671
1,21,4,recall,"SCARLETT JOHANSSON",2,mixed,cel,3,0.887
1,21,5,recall,"MEG RYAN",2,mixed,cel,2,0.707
1,21,6,recall,"PAPER BAG",2,mixed,obj,3,0.745
1,21,7,recall,"THERMOMETER",2,mixed,obj,2,1.116
1,21,8,recall,"FLOWERPOT",2,mixed,obj,3,0.972
1,21,9,recall,"WALKMAN",2,mixed,obj,4,0.923
1,21,10,recall,"GRAND CANYON",2,mixed,loc,4,0.928
1,21,11,recall,"SYDNEY OPERA HOUSE",2,mixed,loc,3,1.003
1,21,12,recall,"LONDON DUNGEON",2,mixed,loc,3,0.464
1,21,13,recall,"PRINTER",2,mixed,obj,2,0.791
1,22,1,study,"BABE RUTH",2,mixed,cel,2,0.919
1,22,2,study,"ORLANDO BLOOM",2,mixed,cel,3,0.763
1,22,3,study,"BILL MAHER",2,mixed,cel,2,0.909
1,22,4,study,"REGIS PHILBIN",2,mixed,cel,3,0.455
1,22,5,study,"BOWLING BALL",2,mixed,obj,2,0.499
1,22,6,study,"KLEENEX",2,mixed,obj,2,0.773
1,22,7,study,"BUTTON",2,mixed,obj,3,0.939
1,22,8,study,"KEYCHAIN",2,mixed,obj,4,0.87
1,22,9,study,"MONTICELLO",2,mixed,loc,2,0.645
1,22,10,study,"BRANDENBURG GATE",2,mixed,loc,2,0.83
1,22,11,study,"SEA WORLD",2,mixed,loc,3,0.66
1,22,12,study,"MOUNT FUJI",2,mixed,loc,2,0.626
1,22,13,study,"CHRISTOPHER WALKEN",2,mixed,cel,3,0.63
1,22,14,study,"HOWARD STERN",2,mixed,cel,2,0.666
1,22,15,study,"KURT COBAIN",2,mixed,cel,2,0.705
1,22,16,study,"MARTHA STEWART",2,mixed,cel,3,0.649
1,22,17,study,"LIBERTY PLACE",2,mixed,loc,2,0.518
1,22,18,study,"VATICAN CITY",2,mixed,loc,3,0.594
1,22,19,study,"LINCOLN MEMORIAL",2,mixed,loc,3,0.848
1,22,20,study,"CAPE HORN",2,mixed,loc,2,0.715
1,22,21,study,"SKATEBOARD",2,mixed,obj,2,0.713
1,22,22,study,"SHOWER HEAD",2,mixed,obj,2,0.687
1,22,23,study,"MOUSE",2,mixed,obj,4,0.968
1,22,24,study,"FIRE EXTINGUISHER",2,mixed,obj,3,0.906
1,22,1,recall,"FIRE EXTINGUISHER",2,mixed,obj,3,0.906
1,22,2,recall,"MOUSE",2,mixed,obj,4,0.968
1,22,3,recall,"KURT COBAIN",2,mixed,cel,2,0.705
1,22,4,recall,"REGIS PHILBIN",2,mixed,cel,3,0.455
1,22,5,recall,"BILL MAHER",2,mixed,cel,2,0.909
1,22,6,recall,"MARTHA STEWART",2,mixed,cel,3,0.649
1,22,7,recall,"BABE RUTH",2,mixed,cel,2,0.919
1,22,8,recall,"BARBARA WALTERS",2,mixed,cel,3,1.158
1,22,9,recall,"BUTTON",2,mixed,obj,3,0.939
1,22,10,recall,"KLEENEX",2,mixed,obj,2,0.773
1,22,11,recall,"SHOWER HEAD",2,mixed,obj,2,0.687
1,22,12,recall,"VATICAN CITY",2,mixed,loc,3,0.594
1,23,1,study,"JIM MORRISON",2,mixed,cel,2,0.988
1,23,2,study,"HEATHER GRAHAM",2,mixed,cel,3,0.766
1,23,3,study,"COLIN POWELL",2,mixed,cel,2,0.616
1,23,4,study,"URINAL",2,mixed,obj,2,0.78
1,23,5,study,"BABY BIB",2,mixed,obj,3,1.039
1,23,6,study,"HOLLYWOOD",2,mixed,loc,4,0.951
1,23,7,study,"LAKE TAHOE",2,mixed,loc,2,0.678
1,23,8,study,"MILLENIUM PARK",2,mixed,loc,3,0.542
1,23,9,study,"GLOVES",2,mixed,obj,3,0.63
1,23,10,study,"FIREPLACE",2,mixed,obj,2,0.496
1,23,11,study,"KEN GRIFFEY",2,mixed,cel,2,0.623
1,23,12,study,"ROBERTO BENIGNI",2,mixed,cel,2,0.901
1,23,13,study,"CARROT TOP",2,mixed,cel,3,0.821
1,23,14,study,"SEVEN MILE BRIDGE",2,mixed,loc,4,0.852
1,23,15,study,"BUCKINGHAM PALACE",2,mixed,loc,2,0.525
1,23,16,study,"FLORENCE",2,mixed,loc,3,0.656
1,23,17,study,"MADONNA",2,mixed,cel,4,0.824
1,23,18,study,"BILLY CRYSTAL",2,mixed,cel,4,0.749
1,23,19,study,"MOUNT EVEREST",2,mixed,loc,2,0.928
1,23,20,study,"SERENGETI PLAIN",2,mixed,loc,3,0.33
1,23,21,study,"PUMPKIN",2,mixed,obj,2,0.45
1,23,22,study,"KNIFE",2,mixed,obj,2,0.577
1,23,23,study,"MASK",2,mixed,obj,2,1.131
1,23,24,study,"CIGARETTE",2,mixed,obj,2,0.834
1,23,1,recall,"CIGARETTE",2,mixed,obj,2,0.834
1,23,2,recall,"MASK",2,mixed,obj,2,1.131
1,23,3,recall,"KNIFE",2,mixed,obj,2,0.577
1,23,4,recall,"MADONNA",2,mixed,cel,4,0.824
1,23,5,recall,"HEATHER GRAHAM",2,mixed,cel,3,0.766
1,23,6,recall,"ROBERTO BENIGNI",2,mixed,cel,2,0.901
1,23,7,recall,"FLORENCE",2,mixed,loc,3,0.656
1,23,8,recall,"MOUNT EVEREST",2,mixed,loc,2,0.928
1,23,9,recall,"PUMPKIN",2,mixed,obj,2,0.45
1,23,10,recall,"SEA WORLD",2,mixed,loc,3,0.66
1,24,1,study,"MITTEN",2,pure,obj,3,1.124
1,24,2,study,"STOCKING",2,pure,obj,2,0.817
1,24,3,study,"BED",2,pure,obj,4,0.851
1,24,4,study,"MICROCHIP",2,pure,obj,2,0.933
1,24,5,study,"TENT",2,pure,obj,3,0.882
1,24,6,study,"SURGE PROTECTOR",2,pure,obj,2,0.77
1,24,7,study,"HANDLE",2,pure,obj,3,1.153
1,24,8,study,"LANTERN",2,pure,obj,2,0.894
1,24,9,study,"LADDER",2,pure,obj,2,0.753
1,24,10,study,"TROPHY",2,pure,obj,2,0.848
1,24,11,study,"WEDDING DRESS",2,pure,obj,2,0.691
1,24,12,study,"TRIPOD",2,pure,obj,2,0.666
1,24,13,study,"PEPPER",2,pure,obj,2,1.08
1,24,14,study,"LENS",2,pure,obj,2,0.835
1,24,15,study,"EMERALD",2,pure,obj,1,0.864
1,24,16,study,"CACTUS",2,pure,obj,1,1.002
1,24,17,study,"PAPER CLIP",2,pure,obj,2,0.699
1,24,18,study,"PEDAL",2,pure,obj,2,0.847
1,24,19,study,"DICE",2,pure,obj,2,0.9
1,24,20,study,"AXE",2,pure,obj,1,0.98
1,24,21,study,"BOWL",2,pure,obj,4,1.008
1,24,22,study,"PETRI DISH",2,pure,obj,2,1.062
1,24,23,study,"LIGHT SWITCH",2,pure,obj,4,1.025
1,24,24,study,"PEN",2,pure,obj,4,0.738
1,24,1,recall,"PEN",2,pure,obj,4,0.738
1,24,2,recall,"BOWL",2,pure,obj,4,1.008
1,24,3,recall,"LIGHT SWITCH",2,pure,obj,4,1.025
1,24,4,recall,"BED",2,pure,obj,4,0.851
1,24,5,recall,"DICE",2,pure,obj,2,0.9
1,24,6,recall,"AXE",2,pure,obj,1,0.98
1,24,7,recall,"TENT",2,pure,obj,3,0.882
1,24,8,recall,"MITTEN",2,pure,obj,3,1.124
1,24,9,recall,"STOCKING",2,pure,obj,2,0.817
1,24,10,recall,"PEDAL",2,pure,obj,2,0.847
1,24,11,recall,"HANDLE",2,pure,obj,3,1.153
1,24,12,recall,"SURGE PROTECTOR",2,pure,obj,2,0.77
1,24,13,recall,"MICROCHIP",2,pure,obj,2,0.933
1,24,14,recall,"PAPER CLIP",2,pure,obj,2,0.699
1,25,1,study,"JOAN RIVERS",2,pure,cel,3,0.937
1,25,2,study,"BRUCE LEE",2,pure,cel,2,0.693
1,25,3,study,"PETER JENNINGS",2,pure,cel,3,0.782
1,25,4,study,"ANDRE3000",2,pure,cel,2,0.612
1,25,5,study,"TOM BROKAW",2,pure,cel,3,0.467
1,25,6,study,"CHER",2,pure,cel,2,0.569
1,25,7,study,"JOHN LENNON",2,pure,cel,2,0.558
1,25,8,study,"KATIE COURIC",2,pure,cel,3,0.569
1,25,9,study,"BEN KINGSLEY",2,pure,cel,2,0.675
1,25,10,study,"ASHTON KUTCHER",2,pure,cel,4,0.84
1,25,11,study,"TOBEY MAGUIRE",2,pure,cel,3,0.54
1,25,12,study,"ANGELINA JOLIE",2,pure,cel,2,0.648
1,25,13,study,"MICHAEL JACKSON",2,pure,cel,3,0.561
1,25,14,study,"STEVEN SPIELBERG",2,pure,cel,2,0.701
1,25,15,study,"PRINCE WILLIAM",2,pure,cel,3,0.561
1,25,16,study,"MEL GIBSON",2,pure,cel,2,0.531
1,25,17,study,"BRITTANY MURPHY",2,pure,cel,3,0.52
1,25,18,study,"ELVIS PRESLEY",2,pure,cel,3,0.399
1,25,19,study,"BONO",2,pure,cel,2,0.587
1,25,20,study,"KEIRA KNIGHTLEY",2,pure,cel,2,0.622
1,25,21,study,"LIZA MINELLI",2,pure,cel,3,0.541
1,25,22,study,"OPRAH WINFREY",2,pure,cel,2,0.277
1,25,23,study,"DAVID BECKHAM",2,pure,cel,2,0.42
1,25,24,study,"CAMERON DIAZ",2,pure,cel,4,0.862
1,25,1,recall,"CAMERON DIAZ",2,pure,cel,4,0.862
1,25,2,recall,"DAVID BECKHAM",2,pure,cel,2,0.42
1,25,3,recall,"OPRAH WINFREY",2,pure,cel,2,0.277
1,25,4,recall,"BRITTANY MURPHY",2,pure,cel,3,0.52
1,25,5,recall,"ASHTON KUTCHER",2,pure,cel,4,0.84
1,25,6,recall,"CHER",2,pure,cel,2,0.569
1,25,7,recall,"TOM BROKAW",2,pure,cel,3,0.467
1,25,8,recall,"PETER JENNINGS",2,pure,cel,3,0.782
1,25,9,recall,"KATIE COURIC",2,pure,cel,3,0.569
1,25,10,recall,"LIZA MINELLI",2,pure,cel,3,0.541
1,25,11,recall,"BEN KINGSLEY",2,pure,cel,2,0.675
1,25,12,recall,"ANGELINA JOLIE",2,pure,cel,2,0.648
1,25,13,recall,"BONO",2,pure,cel,2,0.587
1,25,14,recall,"JOHN LENNON",2,pure,cel,2,0.558
1,25,15,recall,"ANDRE3000",2,pure,cel,2,0.612
1,25,16,recall,"MEL GIBSON",2,pure,cel,2,0.531
1,26,1,study,"BLUE MOSQUE",2,pure,loc,2,0.878
1,26,2,study,"GIANT'S CAUSEWAY",2,pure,loc,3,0.594
1,26,3,study,"KITTY HAWK BEACH",2,pure,loc,2,0.498
1,26,4,study,"MONTMARTRE",2,pure,loc,2,0.62
1,26,5,study,"ARC DE TRIOMPHE",2,pure,loc,3,0.745
1,26,6,study,"VICTORIA FALLS",2,pure,loc,4,0.813
1,26,7,study,"TOWER BRIDGE",2,pure,loc,3,0.576
1,26,8,study,"SISTINE CHAPEL",2,pure,loc,2,0.659
1,26,9,study,"POMPEI",2,pure,loc,3,0.768
1,26,10,study,"YOSEMITE",2,pure,loc,3,0.449
1,26,11,study,"LENIN MAUSOLEUM",2,pure,loc,3,0.413
1,26,12,study,"PARIS OPERA",2,pure,loc,2,0.349
1,26,13,study,"CARNEGIE HALL",2,pure,loc,3,0.727
1,26,14,study,"WALK OF FAME",2,pure,loc,4,1.139
1,26,15,study,"MOUNT KILIMANJARO",2,pure,loc,2,0.633
1,26,16,study,"SAN ANDREAS",2,pure,loc,3,0.342
1,26,17,study,"ROCK AND ROLL HALL OF FAME",2,pure,loc,2,0.664
1,26,18,study,"TAHITI",2,pure,loc,4,0.801
1,26,19,study,"GIZA PYRAMIDS",2,pure,loc,4,0.644
1,26,20,study,"PETRONAS TOWERS",2,pure,loc,3,0.462
1,26,21,study,"LES INVALIDES",2,pure,loc,3,0.694
1,26,22,study,"MACHU PICHU",2,pure,loc,3,0.821
1,26,23,study,"SHEA STADIUM",2,pure,loc,2,0.721
1,26,24,study,"WORLD WAR II MEMORIAL",2,pure,loc,4,0.63
1,26,1,recall,"WORLD WAR II MEMORIAL",2,pure,loc,4,0.63
1,26,2,recall,"GIZA PYRAMIDS",2,pure,loc,4,0.644
1,26,3,recall,"MACHU PICHU",2,pure,loc,3,0.821
1,26,4,recall,"VICTORIA FALLS",2,pure,loc,4,0.813
1,26,5,recall,"ARC DE TRIOMPHE",2,pure,loc,3,0.745
1,26,6,recall,"SISTINE CHAPEL",2,pure,loc,2,0.659
1,26,7,recall,"SAN ANDREAS",2,pure,loc,3,0.342
1,26,8,recall,"YOSEMITE",2,pure,loc,3,0.449
1,26,9,recall,"TOWER BRIDGE",2,pure,loc,3,0.576
1,26,10,recall,"PETRONAS TOWERS",2,pure,loc,3,0.462
1,26,11,recall,"SHEA STADIUM",2,pure,loc,2,0.721
1,26,12,recall,"BLUE MOSQUE",2,pure,loc,2,0.878
1,26,13,recall,"POMPEI",2,pure,loc,3,0.768
1,26,14,recall,"KITTY HAWK BEACH",2,pure,loc,2,0.498
1,26,15,recall,"TAHITI",2,pure,loc,4,0.801
1,27,1,study,"SCARF",2,mixed,obj,2,0.601
1,27,2,study,"SOCK",2,mixed,obj,3,0.618
1,27,3,study,"RALPH NADER",2,mixed,cel,2,0.807
1,27,4,study,"GARTH BROOKS",2,mixed,cel,3,0.708
1,27,5,study,"WOOLWORTH BUILDING",2,mixed,loc,2,0.661
1,27,6,study,"MONTEGO BAY",2,mixed,loc,2,0.525
1,27,7,study,"CAMERA",2,mixed,obj,3,0.576
1,27,8,study,"SPRAY PAINT",2,mixed,obj,2,0.662
1,27,9,study,"ROSE",2,mixed,obj,3,0.697
1,27,10,study,"SADDLE",2,mixed,obj,3,0.879
1,27,11,study,"SIERRA NEVADA",2,mixed,loc,2,0.634
1,27,12,study,"ARABIAN TOWER",2,mixed,loc,4,0.851
1,27,13,study,"BOURBON STREET",2,mixed,loc,4,0.861
1,27,14,study,"DEAD SEA",2,mixed,loc,4,0.94
1,27,15,study,"DAVID DUCHOVNY",2,mixed,cel,2,0.824
1,27,16,study,"BILL MURRAY",2,mixed,cel,3,0.382
1,27,17,study,"HARRISON FORD",2,mixed,cel,4,0.556
1,27,18,study,"WOLF BLITZER",2,mixed,cel,2,0.569
1,27,19,study,"CROWN",2,mixed,obj,3,0.485
1,27,20,study,"WHIP",2,mixed,obj,2,0.896
1,27,21,study,"BRUCE WILLIS",2,mixed,cel,3,1.083
1,27,22,study,"MATT DAMON",2,mixed,cel,3,0.603
1,27,23,study,"LUXOR HOTEL",2,mixed,loc,4,0.954
1,27,24,study,"HONG KONG",2,mixed,loc,3,0.789
1,27,1,recall,"HONG KONG",2,mixed,loc,3,0.789
1,27,2,recall,"LUXOR HOTEL",2,mixed,loc,4,0.954
1,27,3,recall,"DAVID DUCHOVNY",2,mixed,cel,2,0.824
1,27,4,recall,"BRUCE WILLIS",2,mixed,cel,3,1.083
1,27,5,recall,"MATT DAMON",2,mixed,cel,3,0.603
1,27,6,recall,"RALPH NADER",2,mixed,cel,2,0.807
1,27,7,recall,"SOCK",2,mixed,obj,3,0.618
1,27,8,recall,"SCARF",2,mixed,obj,2,0.601
1,27,9,recall,"MONTEGO BAY",2,mixed,loc,2,0.525
1,27,10,recall,"ARABIAN TOWER",2,mixed,loc,4,0.851
1,27,11,recall,"SIERRA NEVADA",2,mixed,loc,2,0.634
1,27,12,recall,"BOURBON STREET",2,mixed,loc,4,0.861
1,28,1,study,"DEODORANT",2,pure,obj,4,0.872
1,28,2,study,"SHOVEL",2,pure,obj,2,0.892
1,28,3,study,"CAR SEAT",2,pure,obj,2,0.681
1,28,4,study,"SAFE",2,pure,obj,2,0.702
1,28,5,study,"HIGHLIGHTER",2,pure,obj,3,0.653
1,28,6,study,"THERMOS",2,pure,obj,4,0.551
1,28,7,study,"CHAIN",2,pure,obj,2,0.792
1,28,8,study,"BASKETBALL HOOP",2,pure,obj,2,0.916
1,28,9,study,"GRILL",2,pure,obj,1,0.561
1,28,10,study,"STOP SIGN",2,pure,obj,3,0.826
1,28,11,study,"HELMET",2,pure,obj,2,0.757
1,28,12,study,"UMBRELLA",2,pure,obj,2,0.865
1,28,13,study,"GOBLET",2,pure,obj,2,0.799
1,28,14,study,"MIRROR",2,pure,obj,4,0.891
1,28,15,study,"CD",2,pure,obj,3,0.987
1,28,16,study,"DOLLAR",2,pure,obj,2,0.565
1,28,17,study,"RING",2,pure,obj,3,0.843
1,28,18,study,"WAFFLE",2,pure,obj,3,0.588
1,28,19,study,"BOUQUET",2,pure,obj,2,0.57
1,28,20,study,"STEERING WHEEL",2,pure,obj,2,0.576
1,28,21,study,"MAILBOX",2,pure,obj,3,0.492
1,28,22,study,"JACKHAMMER",2,pure,obj,2,0.54
1,28,23,study,"SEASHELL",2,pure,obj,2,0.69
1,28,24,study,"BANNER",2,pure,obj,2,0.983
1,28,1,recall,"BANNER",2,pure,obj,2,0.983
1,28,2,recall,"SEASHELL",2,pure,obj,2,0.69
1,28,3,recall,"HIGHLIGHTER",2,pure,obj,3,0.653
1,28,4,recall,"MIRROR",2,pure,obj,4,0.891
1,28,5,recall,"CHAIN",2,pure,obj,2,0.792
1,28,6,recall,"JACKHAMMER",2,pure,obj,2,0.54
1,28,7,recall,"SHOVEL",2,pure,obj,2,0.892
1,28,8,recall,"DEODORANT",2,pure,obj,4,0.872
1,28,9,recall,"BOUQUET",2,pure,obj,2,0.57
1,28,10,recall,"RING",2,pure,obj,3,0.843
1,28,11,recall,"HELMET",2,pure,obj,2,0.757
1,28,12,recall,"UMBRELLA",2,pure,obj,2,0.865
1,28,13,recall,"CAR SEAT",2,pure,obj,2,0.681
1,29,1,study,"ALICIA KEYS",2,mixed,cel,2,0.672
1,29,2,study,"ABRAHAM LINCOLN",2,mixed,cel,3,0.613
1,29,3,study,"MOUSETRAP",2,mixed,obj,1,1.104
1,29,4,study,"SINK",2,mixed,obj,3,0.895
1,29,5,study,"SAHARA",2,mixed,loc,2,0.821
1,29,6,study,"SHANGHAI",2,mixed,loc,3,0.76
1,29,7,study,"YANKEE STADIUM",2,mixed,loc,2,0.838
1,29,8,study,"INTERCOM",2,mixed,obj,3,0.603
1,29,9,study,"BOLT",2,mixed,obj,2,0.548
1,29,10,study,"FOAM CUP",2,mixed,obj,3,0.598
1,29,11,study,"WINDOW",2,mixed,obj,3,0.388
1,29,12,study,"DAN RATHER",2,mixed,cel,3,0.685
1,29,13,study,"PETER O'TOOLE",2,mixed,cel,3,0.733
1,29,14,study,"PRINCESS DIANA",2,mixed,cel,2,0.79
1,29,15,study,"MICHAEL DOUGLAS",2,mixed,cel,2,0.824
1,29,16,study,"CHATEAU CHAMBORD",2,mixed,loc,3,0.628
1,29,17,study,"LUXEMBOURG PALACE",2,mixed,loc,3,0.713
1,29,18,study,"BASEBALL BAT",2,mixed,obj,2,0.981
1,29,19,study,"BUCKET",2,mixed,obj,2,0.635
1,29,20,study,"BRAD PITT",2,mixed,cel,3,0.595
1,29,21,study,"BILL COSBY",2,mixed,cel,2,0.593
1,29,22,study,"SMOKY MOUNTAINS",2,mixed,loc,3,0.622
1,29,23,study,"CHRYSLER BUILDING",2,mixed,loc,2,0.535
1,29,24,study,"LINCOLN CENTER",2,mixed,loc,2,0.54
1,29,1,recall,"LINCOLN CENTER",2,mixed,loc,2,0.54
1,29,2,recall,"CHRYSLER BUILDING",2,mixed,loc,2,0.535
1,29,3,recall,"LUXEMBOURG PALACE",2,mixed,loc,3,0.713
1,29,4,recall,"CHATEAU CHAMBORD",2,mixed,loc,3,0.628
1,29,5,recall,"BILL COSBY",2,mixed,cel,2,0.593
1,29,6,recall,"BRAD PITT",2,mixed,cel,3,0.595
1,29,7,recall,"DAN RATHER",2,mixed,cel,3,0.685
1,29,8,recall,"BASEBALL BAT",2,mixed,obj,2,0.981
1,29,9,recall,"YANKEE STADIUM",2,mixed,loc,2,0.838
1,29,10,recall,"BUCKET",2,mixed,obj,2,0.635
1,29,11,recall,"PRINCESS DIANA",2,mixed,cel,2,0.79
1,29,12,recall,"BOLT",2,mixed,obj,2,0.548
1,30,1,study,"BILLY BOB THORNTON",2,mixed,cel,2,0.856
1,30,2,study,"JENNIFER LOPEZ",2,mixed,cel,3,0.582
1,30,3,study,"SAUCEPAN",2,mixed,obj,2,0.595
1,30,4,study,"WATCH",2,mixed,obj,3,0.534
1,30,5,study,"ST PATRICKS CATHEDRAL",2,mixed,loc,2,0.756
1,30,6,study,"CHICAGO",2,mixed,loc,3,0.721
1,30,7,study,"INDEPENDENCE HALL",2,mixed,loc,2,0.565
1,30,8,study,"CINDERELLA CASTLE",2,mixed,loc,2,0.536
1,30,9,study,"MICROPHONE",2,mixed,obj,3,0.561
1,30,10,study,"PENDULUM",2,mixed,obj,4,0.733
1,30,11,study,"EARRINGS",2,mixed,obj,2,0.473
1,30,12,study,"SWORD",2,mixed,obj,3,0.347
1,30,13,study,"BIRDHOUSE",2,mixed,obj,1,0.981
1,30,14,study,"BRUSH",2,mixed,obj,1,0.596
1,30,15,study,"LEBRON JAMES",2,mixed,cel,2,0.692
1,30,16,study,"AL PACINO",2,mixed,cel,2,0.562
1,30,17,study,"BRITNEY SPEARS",2,mixed,cel,3,0.759
1,30,18,study,"JIMMY CARTER",2,mixed,cel,2,0.614
1,30,19,study,"AUDREY HEPBURN",2,mixed,cel,3,0.655
1,30,20,study,"KEVIN SPACEY",2,mixed,cel,3,0.916
1,30,21,study,"CAMDEN YARDS",2,mixed,loc,2,0.479
1,30,22,study,"TRAFALGAR SQUARE",2,mixed,loc,2,0.392
1,30,23,study,"GOLDEN GATE BRIDGE",2,mixed,loc,2,0.559
1,30,24,study,"VERSAILLES",2,mixed,loc,3,0.55
1,30,1,recall,"VERSAILLES",2,mixed,loc,3,0.55
1,30,2,recall,"GOLDEN GATE BRIDGE",2,mixed,loc,2,0.559
1,30,3,recall,"CAMDEN YARDS",2,mixed,loc,2,0.479
1,30,4,recall,"JIMMY CARTER",2,mixed,cel,2,0.614
1,30,5,recall,"AUDREY HEPBURN",2,mixed,cel,3,0.655
1,30,6,recall,"BRITNEY SPEARS",2,mixed,cel,3,0.759
1,30,7,recall,"JENNIFER LOPEZ",2,mixed,cel,3,0.582
1,30,8,recall,"BILLY BOB THORNTON",2,mixed,cel,2,0.856
1,30,9,recall,"ST PATRICKS CATHEDRAL",2,mixed,loc,2,0.756
1,30,10,recall,"BRUSH",2,mixed,obj,1,0.596
1,31,1,study,"WREATH",2,mixed,obj,2,0.761
1,31,2,study,"HANDCUFFS",2,mixed,obj,2,0.654
1,31,3,study,"TERRELL OWENS",2,mixed,cel,2,0.754
1,31,4,study,"SNOOP DOGG",2,mixed,cel,2,0.581
1,31,5,study,"GEORGE WASHINGTON BRIDGE",2,mixed,loc,3,0.728
1,31,6,study,"CORCOVADO",2,mixed,loc,2,0.659
1,31,7,study,"FLASK",2,mixed,obj,2,0.655
1,31,8,study,"TV",2,mixed,obj,4,0.951
1,31,9,study,"LAMP",2,mixed,obj,3,0.462
1,31,10,study,"GAS MASK",2,mixed,obj,2,0.551
1,31,11,study,"KENSINGTON PALACE",2,mixed,loc,1,0.798
1,31,12,study,"NAPA VALLEY",2,mixed,loc,3,0.569
1,31,13,study,"OLYMPIA",2,mixed,loc,2,0.498
1,31,14,study,"MICHAEL MOORE",2,mixed,cel,3,0.57
1,31,15,study,"SIMON COWELL",2,mixed,cel,2,0.491
1,31,16,study,"BOB SAGET",2,mixed,cel,2,0.719
1,31,17,study,"LEAF",2,mixed,obj,2,0.641
1,31,18,study,"ACORN",2,mixed,obj,3,0.557
1,31,19,study,"TINA TURNER",2,mixed,cel,2,0.372
1,31,20,study,"MARIAH CAREY",2,mixed,cel,3,0.681
1,31,21,study,"JOHN F KENNEDY",2,mixed,cel,2,0.728
1,31,22,study,"BAVARIAN CASTLE",2,mixed,loc,2,0.61
1,31,23,study,"RIO DE JANEIRO",2,mixed,loc,3,0.439
1,31,24,study,"SALT LAKE TEMPLE",2,mixed,loc,3,0.433
1,31,1,recall,"SALT LAKE TEMPLE",2,mixed,loc,3,0.433
1,31,2,recall,"RIO DE JANEIRO",2,mixed,loc,3,0.439
1,31,3,recall,"JOHN F KENNEDY",2,mixed,cel,2,0.728
1,31,4,recall,"MARIAH CAREY",2,mixed,cel,3,0.681
1,31,5,recall,"TINA TURNER",2,mixed,cel,2,0.372
1,31,6,recall,"ACORN",2,mixed,obj,3,0.557
1,31,7,recall,"LEAF",2,mixed,obj,2,0.641
1,31,8,recall,"SINK",2,mixed,obj,3,0.895
1,32,1,study,"ALEX TREBEK",2,mixed,cel,2,0.661
1,32,2,study,"DOLLY PARTON",2,mixed,cel,3,0.558
1,32,3,study,"DEMI MOORE",2,mixed,cel,2,0.495
1,32,4,study,"JACK BLACK",2,mixed,cel,2,0.77
1,32,5,study,"BILL GATES",2,mixed,cel,3,0.855
1,32,6,study,"JENNE MOSQUE",2,mixed,loc,2,0.583
1,32,7,study,"ALAMO",2,mixed,loc,3,0.807
1,32,8,study,"AYERS ROCK",2,mixed,loc,2,0.383
1,32,9,study,"KOREAN WAR MEMORIAL",2,mixed,loc,1,0.627
1,32,10,study,"MODEM",2,mixed,obj,2,0.722
1,32,11,study,"PIE",2,mixed,obj,4,0.909
1,32,12,study,"VASE",2,mixed,obj,3,0.495
1,32,13,study,"DRILL",2,mixed,obj,2,0.664
1,32,14,study,"PONT DU GARD",2,mixed,loc,1,0.823
1,32,15,study,"MADISON SQUARE GARDEN",2,mixed,loc,2,0.622
1,32,16,study,"BRYCE CANYON",2,mixed,loc,3,0.38
1,32,17,study,"KYOTO",2,mixed,loc,4,0.696
1,32,18,study,"BAYONET",2,mixed,obj,2,0.679
1,32,19,study,"TOMATO",2,mixed,obj,3,0.661
1,32,20,study,"NECKLACE",2,mixed,obj,3,0.607
1,32,21,study,"BOTTLE",2,mixed,obj,2,0.654
1,32,22,study,"CATHERINE ZETA JONES",2,mixed,cel,3,0.535
1,32,23,study,"GENE HACKMAN",2,mixed,cel,2,0.763
1,32,24,study,"JOHNNY DEPP",2,mixed,cel,3,0.648
1,32,1,recall,"AL PACINO",2,mixed,cel,2,0.562
1,32,2,recall,"DOLLY PARTON",2,mixed,cel,3,0.558
1,32,3,recall,"CATHERINE ZETA JONES",2,mixed,cel,3,0.535
1,32,4,recall,"JOHNNY DEPP",2,mixed,cel,3,0.648
1,32,5,recall,"BRYCE CANYON",2,mixed,loc,3,0.38
1,32,6,recall,"PIE",2,mixed,obj,4,0.909
1,32,7,recall,"VASE",2,mixed,obj,3,0.495
1,32,8,recall,"DEMI MOORE",2,mixed,cel,2,0.495
1,33,1,study,"SWORD",3,mixed,obj,2,0.97
1,33,2,study,"PUMPKIN",3,mixed,obj,2,0.908
1,33,3,study,"CROWN",3,mixed,obj,2,1.188
1,33,4,study,"WINSTON CHURCHILL",3,mixed,cel,1,1.365
1,33,5,study,"LIAM NEESON",3,mixed,cel,2,0.863
1,33,6,study,"PICADILLY CIRCUS",3,mixed,loc,2,1.002
1,33,7,study,"SISTINE CHAPEL",3,mixed,loc,2,0.684
1,33,8,study,"VINCE VAUGHN",3,mixed,cel,2,1.005
1,33,9,study,"BEN STILLER",3,mixed,cel,3,0.647
1,33,10,study,"WILL SMITH",3,mixed,cel,3,0.792
1,33,11,study,"ANNETTE BENING",3,mixed,cel,3,0.799
1,33,12,study,"BOOK",3,mixed,obj,3,1.039
1,33,13,study,"TOILET SEAT",3,mixed,obj,4,0.806
1,33,14,study,"FIREPLACE",3,mixed,obj,3,0.727
1,33,15,study,"MASSACHUSETS STATE HOUSE",3,mixed,loc,2,0.985
1,33,16,study,"GREAT WALL OF CHINA",3,mixed,loc,3,0.9
1,33,17,study,"PETRA",3,mixed,loc,2,0.789
1,33,18,study,"JENNE MOSQUE",3,mixed,loc,3,0.803
1,33,19,study,"GLUE STICK",3,mixed,obj,2,0.699
1,33,20,study,"DESK",3,mixed,obj,3,0.934
1,33,21,study,"WALK OF FAME",3,mixed,loc,3,1.063
1,33,22,study,"WOOLWORTH BUILDING",3,mixed,loc,3,0.999
1,33,23,study,"HUGH GRANT",3,mixed,cel,3,0.838
1,33,24,study,"RODNEY DANGERFIELD",3,mixed,cel,2,0.563
1,33,1,recall,"RODNEY DANGERFIELD",3,mixed,cel,2,0.563
1,33,2,recall,"WOOLWORTH BUILDING",3,mixed,loc,3,0.999
1,33,3,recall,"JENNE MOSQUE",3,mixed,loc,3,0.803
1,33,4,recall,"SISTINE CHAPEL",3,mixed,loc,2,0.684
1,33,5,recall,"PETRA",3,mixed,loc,2,0.789
1,33,6,recall,"WILL SMITH",3,mixed,cel,3,0.792
1,33,7,recall,"VINCE VAUGHN",3,mixed,cel,2,1.005
1,33,8,recall,"LIAM NEESON",3,mixed,cel,2,0.863
1,33,9,recall,"WINSTON CHURCHILL",3,mixed,cel,1,1.365
1,33,10,recall,"SWORD",3,mixed,obj,2,0.97
1,33,11,recall,"CROWN",3,mixed,obj,2,1.188
1,33,12,recall,"ANNETTE BENING",3,mixed,cel,3,0.799
1,33,13,recall,"RODNEY DANGERFIELD",3,mixed,cel,2,0.563
1,33,14,recall,"MASSACHUSETS STATE HOUSE",3,mixed,loc,2,0.985
1,33,15,recall,"HUGH GRANT",3,mixed,cel,3,0.838
1,33,16,recall,"DESK",3,mixed,obj,3,0.934
1,33,17,recall,"FIREPLACE",3,mixed,obj,3,0.727
1,33,18,recall,"TOILET SEAT",3,mixed,obj,4,0.806
1,34,1,study,"DREW BARRYMORE",3,pure,cel,3,0.902
1,34,2,study,"TOM CRUISE",3,pure,cel,4,0.693
1,34,3,study,"BOB DYLAN",3,pure,cel,2,0.944
1,34,4,study,"PRINCE CHARLES",3,pure,cel,3,0.708
1,34,5,study,"JOHN TRAVOLTA",3,pure,cel,3,0.744
1,34,6,study,"SYLVESTER STALLONE",3,pure,cel,3,0.691
1,34,7,study,"MICHAEL DOUGLAS",3,pure,cel,3,0.805
1,34,8,study,"ROSEANNE BARR",3,pure,cel,2,0.697
1,34,9,study,"ROBERT REDFORD",3,pure,cel,2,0.74
1,34,10,study,"DOLLY PARTON",3,pure,cel,2,0.74
1,34,11,study,"OWEN WILSON",3,pure,cel,3,0.755
1,34,12,study,"GWEN STEFANI",3,pure,cel,2,0.712
1,34,13,study,"BRUCE WILLIS",3,pure,cel,3,0.685
1,34,14,study,"CHER",3,pure,cel,2,0.728
1,34,15,study,"JIM CARREY",3,pure,cel,3,0.719
1,34,16,study,"SEAN PENN",3,pure,cel,2,0.583
1,34,17,study,"WOLF BLITZER",3,pure,cel,2,0.559
1,34,18,study,"KURT COBAIN",3,pure,cel,2,0.676
1,34,19,study,"DAVID SPADE",3,pure,cel,2,0.71
1,34,20,study,"LIZA MINELLI",3,pure,cel,1,0.845
1,34,21,study,"BRITTANY MURPHY",3,pure,cel,2,0.805
1,34,22,study,"JACKIE CHAN",3,pure,cel,2,0.721
1,34,23,study,"RUSSELL CROWE",3,pure,cel,3,0.818
1,34,24,study,"JENNIFER ANISTON",3,pure,cel,4,0.782
1,34,1,recall,"JENNIFER ANISTON",3,pure,cel,4,0.782
1,34,2,recall,"RUSSELL CROWE",3,pure,cel,3,0.818
1,34,3,recall,"TOM CRUISE",3,pure,cel,4,0.693
1,34,4,recall,"GWEN STEFANI",3,pure,cel,2,0.712
1,34,5,recall,"KURT COBAIN",3,pure,cel,2,0.676
1,34,6,recall,"DREW BARRYMORE",3,pure,cel,3,0.902
1,34,7,recall,"LIZA MINELLI",3,pure,cel,1,0.845
1,34,8,recall,"JOHN TRAVOLTA",3,pure,cel,3,0.744
1,34,9,recall,"SYLVESTER STALLONE",3,pure,cel,3,0.691
1,34,10,recall,"PRINCE CHARLES",3,pure,cel,3,0.708
1,34,11,recall,"CHER",3,pure,cel,2,0.728
1,34,12,recall,"SEAN PENN",3,pure,cel,2,0.583
1,34,13,recall,"MICHAEL DOUGLAS",3,pure,cel,3,0.805
1,34,14,recall,"JIM CARREY",3,pure,cel,3,0.719
1,34,15,recall,"ROBERT REDFORD",3,pure,cel,2,0.74
1,34,16,recall,"ROSEANNE BARR",3,pure,cel,2,0.697
1,35,1,study,"JOHN MCCAIN",3,mixed,cel,2,0.949
1,35,2,study,"DANE COOK",3,mixed,cel,2,0.737
1,35,3,study,"BILL MURRAY",3,mixed,cel,3,0.796
1,35,4,study,"HANGER",3,mixed,obj,2,0.94
1,35,5,study,"SINK",3,mixed,obj,3,0.773
1,35,6,study,"STATUE OF LIBERTY",3,mixed,loc,2,1.127
1,35,7,study,"WASHINGTON MONUMENT",3,mixed,loc,3,0.816
1,35,8,study,"LIGHTER",3,mixed,obj,2,1.151
1,35,9,study,"TRASH CAN",3,mixed,obj,4,0.865
1,35,10,study,"SOAP",3,mixed,obj,3,0.709
1,35,11,study,"NEWSPAPER",3,mixed,obj,4,0.75
1,35,12,study,"ALEC BALDWIN",3,mixed,cel,2,0.796
1,35,13,study,"CHARLIZE THERON",3,mixed,cel,4,0.86
1,35,14,study,"ARUBA",3,mixed,loc,4,0.851
1,35,15,study,"ALCATRAZ",3,mixed,loc,3,1.054
1,35,16,study,"COVENT GARDEN",3,mixed,loc,2,0.916
1,35,17,study,"SYDNEY OPERA HOUSE",3,mixed,loc,4,0.84
1,35,18,study,"DEBRA MESSING",3,mixed,cel,3,0.977
1,35,19,study,"KEN GRIFFEY",3,mixed,cel,2,0.878
1,35,20,study,"COURTENEY COX",3,mixed,cel,3,0.669
1,35,21,study,"BELT",3,mixed,obj,4,0.729
1,35,22,study,"PADLOCK",3,mixed,obj,2,1.093
1,35,23,study,"SHANGHAI",3,mixed,loc,3,0.95
1,35,24,study,"BLUE MOSQUE",3,mixed,loc,3,0.832
1,35,1,recall,"BLUE MOSQUE",3,mixed,loc,3,0.832
1,35,2,recall,"SHANGHAI",3,mixed,loc,3,0.95
1,35,3,recall,"COURTENEY COX",3,mixed,cel,3,0.669
1,35,4,recall,"DEBRA MESSING",3,mixed,cel,3,0.977
1,35,5,recall,"WASHINGTON MONUMENT",3,mixed,loc,3,0.816
1,35,6,recall,"STATUE OF LIBERTY",3,mixed,loc,2,1.127
1,35,7,recall,"SYDNEY OPERA HOUSE",3,mixed,loc,4,0.84
1,35,8,recall,"COVENT GARDEN",3,mixed,loc,2,0.916
1,35,9,recall,"ARUBA",3,mixed,loc,4,0.851
1,35,10,recall,"BILL MURRAY",3,mixed,cel,3,0.796
1,35,11,recall,"SINK",3,mixed,obj,3,0.773
1,35,12,recall,"TRASH CAN",3,mixed,obj,4,0.865
1,35,13,recall,"SOAP",3,mixed,obj,3,0.709
1,35,14,recall,"HANGER",3,mixed,obj,2,0.94
1,35,15,recall,"CHARLIZE THERON",3,mixed,cel,4,0.86
1,35,16,recall,"JOHN MCCAIN",3,mixed,cel,2,0.949
1,35,17,recall,"ALCATRAZ",3,mixed,loc,3,1.054
1,36,1,study,"BELL",3,mixed,obj,2,0.884
1,36,2,study,"BIRDHOUSE",3,mixed,obj,2,0.73
1,36,3,study,"ZIPLOCK BAG",3,mixed,obj,4,0.899
1,36,4,study,"KLEENEX",3,mixed,obj,4,0.806
1,36,5,study,"KEVIN SPACEY",3,mixed,cel,2,0.744
1,36,6,study,"TOM BROKAW",3,mixed,cel,2,0.825
1,36,7,study,"DAVID DUCHOVNY",3,mixed,cel,2,0.86
1,36,8,study,"WILL FERRELL",3,mixed,cel,2,0.522
1,36,9,study,"POMPEI",3,mixed,loc,3,0.794
1,36,10,study,"JEFFERSON MEMORIAL",3,mixed,loc,2,0.721
1,36,11,study,"MADISON SQUARE GARDEN",3,mixed,loc,3,1.039
1,36,12,study,"NAPA VALLEY",3,mixed,loc,3,1.271
1,36,13,study,"OXFORD",3,mixed,loc,3,0.941
1,36,14,study,"CIGARETTE",3,mixed,obj,2,0.68
1,36,15,study,"TEAPOT",3,mixed,obj,2,0.712
1,36,16,study,"SHOVEL",3,mixed,obj,2,0.684
1,36,17,study,"GUITAR",3,mixed,obj,2,0.929
1,36,18,study,"ROMAN FORUM",3,mixed,loc,3,0.791
1,36,19,study,"WINTER PALACE",3,mixed,loc,3,0.672
1,36,20,study,"ALAMO",3,mixed,loc,3,0.74
1,36,21,study,"ALEX RODRIGUEZ",3,mixed,cel,1,1.015
1,36,22,study,"JOE DIMAGGIO",3,mixed,cel,1,1.027
1,36,23,study,"MATTHEW PERRY",3,mixed,cel,2,0.735
1,36,24,study,"ROBERTO BENIGNI",3,mixed,cel,2,0.827
1,36,1,recall,"ROBERTO BENIGNI",3,mixed,cel,2,0.827
1,36,2,recall,"MATTHEW PERRY",3,mixed,cel,2,0.735
1,36,3,recall,"TOM BROKAW",3,mixed,cel,2,0.825
1,36,4,recall,"WILL FERRELL",3,mixed,cel,2,0.522
1,36,5,recall,"KEVIN SPACEY",3,mixed,cel,2,0.744
1,36,6,recall,"ALAMO",3,mixed,loc,3,0.74
1,36,7,recall,"JEFFERSON MEMORIAL",3,mixed,loc,2,0.721
1,36,8,recall,"WINTER PALACE",3,mixed,loc,3,0.672
1,36,9,recall,"ROMAN FORUM",3,mixed,loc,3,0.791
1,36,10,recall,"POMPEI",3,mixed,loc,3,0.794
1,36,11,recall,"SHOVEL",3,mixed,obj,2,0.684
1,36,12,recall,"TEAPOT",3,mixed,obj,2,0.712
1,36,13,recall,"ZIPLOCK BAG",3,mixed,obj,4,0.899
1,36,14,recall,"BIRDHOUSE",3,mixed,obj,2,0.73
1,36,15,recall,"BELL",3,mixed,obj,2,0.884
1,36,16,recall,"DAVID DUCHOVNY",3,mixed,cel,2,0.86
1,37,1,study,"LAWN MOWER",3,pure,obj,2,0.898
1,37,2,study,"HANDCUFFS",3,pure,obj,2,0.602
1,37,3,study,"CAMERA",3,pure,obj,2,0.726
1,37,4,study,"GLASS",3,pure,obj,3,0.74
1,37,5,study,"SAUCEPAN",3,pure,obj,4,1.004
1,37,6,study,"CACTUS",3,pure,obj,1,1.101
1,37,7,study,"KEYS",3,pure,obj,4,1.084
1,37,8,study,"PIE",3,pure,obj,2,0.908
1,37,9,study,"CANDLE",3,pure,obj,3,0.786
1,37,10,study,"DRESSER",3,pure,obj,4,0.723
1,37,11,study,"MODEM",3,pure,obj,4,1.019
1,37,12,study,"SPRAY PAINT",3,pure,obj,1,1.118
1,37,13,study,"QUARTER",3,pure,obj,4,0.859
1,37,14,study,"CURTAIN",3,pure,obj,3,0.89
1,37,15,study,"BARCODE SCANNER",3,pure,obj,4,0.85
1,37,16,study,"LAMP",3,pure,obj,3,0.487
1,37,17,study,"TROPHY",3,pure,obj,4,0.69
1,37,18,study,"KNIFE",3,pure,obj,3,1.005
1,37,19,study,"INTERCOM",3,pure,obj,4,0.935
1,37,20,study,"WATER GUN",3,pure,obj,1,1.123
1,37,21,study,"FEATHER",3,pure,obj,1,1.115
1,37,22,study,"SKATEBOARD",3,pure,obj,1,1.062
1,37,23,study,"VASE",3,pure,obj,2,0.771
1,37,24,study,"WATCH",3,pure,obj,3,0.947
1,37,1,recall,"WATCH",3,pure,obj,3,0.947
1,37,2,recall,"SKATEBOARD",3,pure,obj,1,1.062
1,37,3,recall,"KNIFE",3,pure,obj,3,1.005
1,37,4,recall,"TROPHY",3,pure,obj,4,0.69
1,37,5,recall,"VASE",3,pure,obj,2,0.771
1,37,6,recall,"DRESSER",3,pure,obj,4,0.723
1,37,7,recall,"LAWN MOWER",3,pure,obj,2,0.898
1,37,8,recall,"INTERCOM",3,pure,obj,4,0.935
1,37,9,recall,"MODEM",3,pure,obj,4,1.019
1,37,10,recall,"BARCODE SCANNER",3,pure,obj,4,0.85
1,37,11,recall,"KEYS",3,pure,obj,4,1.084
1,37,12,recall,"LAMP",3,pure,obj,3,0.487
1,37,13,recall,"WATER GUN",3,pure,obj,1,1.123
1,37,14,recall,"SPRAY PAINT",3,pure,obj,1,1.118
1,37,15,recall,"BELT",3,pure,obj,4,0.729
1,37,16,recall,"WATCH",3,pure,obj,3,0.947
1,38,1,study,"SOHO",3,pure,loc,2,1.009
1,38,2,study,"MALL OF AMERICA",3,pure,loc,3,1.115
1,38,3,study,"EIFFEL TOWER",3,pure,loc,3,0.606
1,38,4,study,"MOULIN ROUGE",3,pure,loc,3,0.733
1,38,5,study,"VICTORIA FALLS",3,pure,loc,4,0.863
1,38,6,study,"QUINCY MARKET",3,pure,loc,2,0.843
1,38,7,study,"CAMDEN YARDS",3,pure,loc,2,0.663
1,38,8,study,"HONG KONG",3,pure,loc,3,0.776
1,38,9,study,"SIERRA NEVADA",3,pure,loc,3,0.625
1,38,10,study,"SPACE NEEDLE",3,pure,loc,2,0.92
1,38,11,study,"GIANT'S CAUSEWAY",3,pure,loc,2,1.033
1,38,12,study,"INDIANAPOLIS MOTOR SPEEDWAY",3,pure,loc,2,0.689
1,38,13,study,"SAN ANDREAS",3,pure,loc,3,0.654
1,38,14,study,"AMAZON RIVER",3,pure,loc,2,0.735
1,38,15,study,"DELPHI",3,pure,loc,2,0.76
1,38,16,study,"BRANDENBURG GATE",3,pure,loc,3,0.933
1,38,17,study,"PHILADELPHIA ART MUSEUM",3,pure,loc,3,1.005
1,38,18,study,"MAYAN PYRAMID",3,pure,loc,4,1.091
1,38,19,study,"YELLOWSTONE",3,pure,loc,2,0.816
1,38,20,study,"IWO JIMA MEMORIAL",3,pure,loc,2,0.788
1,38,21,study,"ROCKEFELLER CENTER",3,pure,loc,3,0.645
1,38,22,study,"WALL STREET",3,pure,loc,3,0.8
1,38,23,study,"LINCOLN CENTER",3,pure,loc,3,0.856
1,38,24,study,"AYERS ROCK",3,pure,loc,3,0.682
1,38,1,recall,"AYERS ROCK",3,pure,loc,3,0.682
1,38,2,recall,"CAMDEN YARDS",3,pure,loc,2,0.663
1,38,3,recall,"IWO JIMA MEMORIAL",3,pure,loc,2,0.788
1,38,4,recall,"HONG KONG",3,pure,loc,3,0.776
1,38,5,recall,"MAYAN PYRAMID",3,pure,loc,4,1.091
1,38,6,recall,"WALL STREET",3,pure,loc,3,0.8
1,38,7,recall,"ROCKEFELLER CENTER",3,pure,loc,3,0.645
1,38,8,recall,"SIERRA NEVADA",3,pure,loc,3,0.625
1,38,9,recall,"SAN ANDREAS",3,pure,loc,3,0.654
1,38,10,recall,"YELLOWSTONE",3,pure,loc,2,0.816
1,38,11,recall,"VICTORIA FALLS",3,pure,loc,4,0.863
1,38,12,recall,"MADISON SQUARE GARDEN",3,pure,loc,3,1.039
1,38,13,recall,"BRANDENBURG GATE",3,pure,loc,3,0.933
1,38,14,recall,"GIANT'S CAUSEWAY",3,pure,loc,2,1.033
1,38,15,recall,"DELPHI",3,pure,loc,2,0.76
1,38,16,recall,"EIFFEL TOWER",3,pure,loc,3,0.606
1,38,17,recall,"SPACE NEEDLE",3,pure,loc,2,0.92
1,39,1,study,"JUSTIN TIMBERLAKE",3,mixed,cel,4,0.938
1,39,2,study,"RENEE ZELLWEGER",3,mixed,cel,3,0.627
1,39,3,study,"SAMUEL L JACKSON",3,mixed,cel,3,0.778
1,39,4,study,"BILL GATES",3,mixed,cel,2,0.806
1,39,5,study,"PIERCE BROSNAN",3,mixed,cel,3,0.588
1,39,6,study,"TAJ MAHAL",3,mixed,loc,4,0.754
1,39,7,study,"LENIN MAUSOLEUM",3,mixed,loc,3,0.688
1,39,8,study,"MOUNT KILIMANJARO",3,mixed,loc,2,1.018
1,39,9,study,"BIG BEN",3,mixed,loc,3,0.572
1,39,10,study,"FAUCET",3,mixed,obj,4,0.974
1,39,11,study,"SHELF",3,mixed,obj,4,0.72
1,39,12,study,"BOWLING BALL",3,mixed,obj,1,0.862
1,39,13,study,"EARRINGS",3,mixed,obj,4,0.811
1,39,14,study,"AL PACINO",3,mixed,cel,3,0.83
1,39,15,study,"DICK CHENEY",3,mixed,cel,3,0.662
1,39,16,study,"BARBARA WALTERS",3,mixed,cel,3,0.731
1,39,17,study,"HELMET",3,mixed,obj,1,1.201
1,39,18,study,"CALENDAR",3,mixed,obj,3,1.095
1,39,19,study,"WHIP",3,mixed,obj,1,1.078
1,39,20,study,"ROSE",3,mixed,obj,2,0.958
1,39,21,study,"PARIS OPERA",3,mixed,loc,3,0.878
1,39,22,study,"TREVI FOUNTAIN",3,mixed,loc,2,1.018
1,39,23,study,"CAPE OF GOOD HOPE",3,mixed,loc,3,0.782
1,39,24,study,"WHITE CLIFFS OF DOVER",3,mixed,loc,4,0.794
1,39,1,recall,"WHITE CLIFFS OF DOVER",3,mixed,loc,4,0.794
1,39,2,recall,"CAPE OF GOOD HOPE",3,mixed,loc,3,0.782
1,39,3,recall,"BARBARA WALTERS",3,mixed,cel,3,0.731
1,39,4,recall,"DICK CHENEY",3,mixed,cel,3,0.662
1,39,5,recall,"SAMUEL L JACKSON",3,mixed,cel,3,0.778
1,39,6,recall,"RENEE ZELLWEGER",3,mixed,cel,3,0.627
1,39,7,recall,"AL PACINO",3,mixed,cel,3,0.83
1,39,8,recall,"FAUCET",3,mixed,obj,4,0.974
1,39,9,recall,"WHIP",3,mixed,obj,1,1.078
1,39,10,recall,"SHELF",3,mixed,obj,4,0.72
1,39,11,recall,"EARRINGS",3,mixed,obj,4,0.811
1,39,12,recall,"TREVI FOUNTAIN",3,mixed,loc,2,1.018
1,39,13,recall,"BIG BEN",3,mixed,loc,3,0.572
1,39,14,recall,"PARIS OPERA",3,mixed,loc,3,0.878
1,40,1,study,"JOHNNY DEPP",3,mixed,cel,3,1.029
1,40,2,study,"LISA KUDROW",3,mixed,cel,3,0.703
1,40,3,study,"CAPE CANAVERAL",3,mixed,loc,3,0.928
1,40,4,study,"INDEPENDENCE HALL",3,mixed,loc,2,1.071
1,40,5,study,"PEN",3,mixed,obj,3,1.018
1,40,6,study,"NEST",3,mixed,obj,1,1.086
1,40,7,study,"MARGARET THATCHER",3,mixed,cel,2,0.99
1,40,8,study,"PETER O'TOOLE",3,mixed,cel,1,1.106
1,40,9,study,"SNOOP DOGG",3,mixed,cel,2,0.831
1,40,10,study,"DONALD RUMSFELD",3,mixed,cel,2,0.759
1,40,11,study,"SEARS TOWER",3,mixed,loc,3,0.954
1,40,12,study,"KITTY HAWK BEACH",3,mixed,loc,2,0.76
1,40,13,study,"BOURBON STREET",3,mixed,loc,2,0.859
1,40,14,study,"WRIGLEY FIELD",3,mixed,loc,3,0.734
1,40,15,study,"SURGE PROTECTOR",3,mixed,obj,3,1.136
1,40,16,study,"CRAYONS",3,mixed,obj,1,1.11
1,40,17,study,"CRADLE",3,mixed,obj,1,0.874
1,40,18,study,"LIGHTBULB",3,mixed,obj,1,0.934
1,40,19,study,"CAPITOL HILL",3,mixed,loc,2,0.653
1,40,20,study,"VERSAILLES",3,mixed,loc,2,0.773
1,40,21,study,"STEPHEN COLBERT",3,mixed,cel,2,0.769
1,40,22,study,"SCARLETT JOHANSSON",3,mixed,cel,3,0.937
1,40,23,study,"FLASK",3,mixed,obj,1,0.842
1,40,24,study,"STAPLE REMOVER",3,mixed,obj,3,0.61
1,40,1,recall,"STAPLE REMOVER",3,mixed,obj,3,0.61
1,40,2,recall,"FLASK",3,mixed,obj,1,0.842
1,40,3,recall,"SCARLETT JOHANSSON",3,mixed,cel,3,0.937
1,40,4,recall,"DONALD RUMSFELD",3,mixed,cel,2,0.759
1,40,5,recall,"STEPHEN COLBERT",3,mixed,cel,2,0.769
1,40,6,recall,"VERSAILLES",3,mixed,loc,2,0.773
1,40,7,recall,"KITTY HAWK BEACH",3,mixed,loc,2,0.76
1,40,8,recall,"STAPLE REMOVER",3,mixed,obj,3,0.61
1,40,9,recall,"LIGHTBULB",3,mixed,obj,1,0.934
1,40,10,recall,"CRAYONS",3,mixed,obj,1,1.11
1,40,11,recall,"PEN",3,mixed,obj,3,1.018
1,40,12,recall,"LISA KUDROW",3,mixed,cel,3,0.703
1,40,13,recall,"JOHNNY DEPP",3,mixed,cel,3,1.029
1,40,14,recall,"CAPITOL HILL",3,mixed,loc,2,0.653
1,40,15,recall,"WRIGLEY FIELD",3,mixed,loc,3,0.734
1,40,16,recall,"CAPE CANAVERAL",3,mixed,loc,3,0.928
1,40,17,recall,"SURGE PROTECTOR",3,mixed,obj,3,1.136
1,41,1,study,"ST PATRICKS CATHEDRAL",3,pure,loc,2,0.898
1,41,2,study,"IGUAZU FALLS",3,pure,loc,2,0.687
1,41,3,study,"PACIFIC BELL PARK",3,pure,loc,3,0.689
1,41,4,study,"UNITED NATIONS BUILDING",3,pure,loc,2,0.761
1,41,5,study,"CORCOVADO",3,pure,loc,2,0.536
1,41,6,study,"TOWER OF LONDON",3,pure,loc,3,0.586
1,41,7,study,"ABU SIMBEL",3,pure,loc,2,0.581
1,41,8,study,"HAYDEN PLANETARIUM",3,pure,loc,2,0.737
1,41,9,study,"PLYMOUTH PLANTATION",3,pure,loc,2,0.595
1,41,10,study,"VATICAN CITY",3,pure,loc,2,0.559
1,41,11,study,"SAHARA",3,pure,loc,2,0.766
1,41,12,study,"ATLANTIC CITY",3,pure,loc,3,0.883
1,41,13,study,"CHICAGO",3,pure,loc,3,0.554
1,41,14,study,"QUEBEC",3,pure,loc,3,0.747
1,41,15,study,"PEARL HARBOR",3,pure,loc,4,0.686
1,41,16,study,"BUNKER HILL",3,pure,loc,3,0.514
1,41,17,study,"NAVAL ACADEMY CHAPEL",3,pure,loc,3,0.603
1,41,18,study,"EPCOT CENTER",3,pure,loc,3,0.757
1,41,19,study,"PENTAGON",3,pure,loc,4,0.972
1,41,20,study,"KRONBORG CASTLE",3,pure,loc,3,0.738
1,41,21,study,"MOUNT RAINIER",3,pure,loc,1,1.189
1,41,22,study,"PRADO MUSEUM",3,pure,loc,1,0.853
1,41,23,study,"THE VENETIAN",3,pure,loc,3,0.828
1,41,24,study,"CAPILANO BRIDGE",3,pure,loc,1,1.184
1,41,1,recall,"CAPILANO BRIDGE",3,pure,loc,1,1.184
1,41,2,recall,"THE VENETIAN",3,pure,loc,3,0.828
1,41,3,recall,"IGUAZU FALLS",3,pure,loc,2,0.687
1,41,4,recall,"CORCOVADO",3,pure,loc,2,0.536
1,41,5,recall,"TOWER OF LONDON",3,pure,loc,3,0.586
1,41,6,recall,"VATICAN CITY",3,pure,loc,2,0.559
1,41,7,recall,"PENTAGON",3,pure,loc,4,0.972
1,41,8,recall,"BUNKER HILL",3,pure,loc,3,0.514
1,41,9,recall,"PLYMOUTH PLANTATION",3,pure,loc,2,0.595
1,41,10,recall,"ST PATRICKS CATHEDRAL",3,pure,loc,2,0.898
1,41,11,recall,"SAHARA",3,pure,loc,2,0.766
1,41,12,recall,"PEARL HARBOR",3,pure,loc,4,0.686
1,41,13,recall,"MOUNT RAINIER",3,pure,loc,1,1.189
1,42,1,study,"DEMI MOORE",3,pure,cel,4,0.764
1,42,2,study,"GWYNETH PALTROW",3,pure,cel,4,0.605
1,42,3,study,"LINDSAY LOHAN",3,pure,cel,4,0.74
1,42,4,study,"MICHAEL JORDAN",3,pure,cel,3,0.879
1,42,5,study,"JOAQUIN PHOENIX",3,pure,cel,3,0.659
1,42,6,study,"VIN DIESEL",3,pure,cel,2,0.662
1,42,7,study,"ALICIA KEYS",3,pure,cel,3,0.809
1,42,8,study,"BOB SAGET",3,pure,cel,2,1.107
1,42,9,study,"MARIAH CAREY",3,pure,cel,3,0.684
1,42,10,study,"JACK NICHOLSON",3,pure,cel,2,0.797
1,42,11,study,"BEN KINGSLEY",3,pure,cel,2,0.687
1,42,12,study,"LEONARDO DICAPRIO",3,pure,cel,3,0.671
1,42,13,study,"BARRY BONDS",3,pure,cel,3,0.653
1,42,14,study,"REGIS PHILBIN",3,pure,cel,2,0.701
1,42,15,study,"TONY BLAIR",3,pure,cel,1,0.978
1,42,16,study,"HOWARD STERN",3,pure,cel,1,0.761
1,42,17,study,"JIMI HENDRIX",3,pure,cel,2,0.809
1,42,18,study,"ELVIS PRESLEY",3,pure,cel,1,0.854
1,42,19,study,"NICOLE KIDMAN",3,pure,cel,3,0.811
1,42,20,study,"MAHATMA GANDHI",3,pure,cel,4,1.066
1,42,21,study,"GENE HACKMAN",3,pure,cel,3,0.789
1,42,22,study,"ORLANDO BLOOM",3,pure,cel,2,0.629
1,42,23,study,"CONDOLEEZZA RICE",3,pure,cel,1,0.885
1,42,24,study,"KATE WINSLET",3,pure,cel,3,0.901
1,42,1,recall,"KATE WINSLET",3,pure,cel,3,0.901
1,42,2,recall,"CONDOLEEZZA RICE",3,pure,cel,1,0.885
1,42,3,recall,"DEMI MOORE",3,pure,cel,4,0.764
1,42,4,recall,"GWYNETH PALTROW",3,pure,cel,4,0.605
1,42,5,recall,"LINDSAY LOHAN",3,pure,cel,4,0.74
1,42,6,recall,"NICOLE KIDMAN",3,pure,cel,3,0.811
1,42,7,recall,"BARRY BONDS",3,pure,cel,3,0.653
1,42,8,recall,"MICHAEL JORDAN",3,pure,cel,3,0.879
1,42,9,recall,"JACK NICHOLSON",3,pure,cel,2,0.797
1,42,10,recall,"ELVIS PRESLEY",3,pure,cel,1,0.854
1,42,11,recall,"HOWARD STERN",3,pure,cel,1,0.761
1,42,12,recall,"JIMI HENDRIX",3,pure,cel,2,0.809
1,42,13,recall,"TONY BLAIR",3,pure,cel,1,0.978
1,42,14,recall,"NICOLE KIDMAN",3,pure,cel,3,0.811
1,42,15,recall,"MARIAH CAREY",3,pure,cel,3,0.684
1,42,16,recall,"ALICIA KEYS",3,pure,cel,3,0.809
1,42,17,recall,"SNOOP DOGG",3,pure,cel,2,0.831
1,42,18,recall,"REGIS PHILBIN",3,pure,cel,2,0.701
1,43,1,study,"VACUUM CLEANER",3,mixed,obj,4,0.904
1,43,2,study,"THERMOMETER",3,mixed,obj,3,0.667
1,43,3,study,"BUTTON",3,mixed,obj,3,0.718
1,43,4,study,"JOYSTICK",3,mixed,obj,2,0.811
1,43,5,study,"LEGO",3,mixed,obj,3,0.858
1,43,6,study,"WIMBLEDON",3,mixed,loc,3,1.043
1,43,7,study,"MOUNT BLANC",3,mixed,loc,3,0.855
1,43,8,study,"JESSICA SIMPSON",3,mixed,cel,3,0.703
1,43,9,study,"EMINEM",3,mixed,cel,3,0.754
1,43,10,study,"ALBERT EINSTEIN",3,mixed,cel,3,0.805
1,43,11,study,"JACQUES CHIRAC",3,mixed,cel,2,0.817
1,43,12,study,"SARAH JESSICA PARKER",3,mixed,cel,3,0.739
1,43,13,study,"BRYCE CANYON",3,mixed,loc,3,0.796
1,43,14,study,"BELLAGIO FOUNTAINS",3,mixed,loc,4,1.083
1,43,15,study,"GETTYSBURG",3,mixed,loc,3,0.756
1,43,16,study,"SAN FRANCISCO",3,mixed,loc,2,0.508
1,43,17,study,"MECCA",3,mixed,loc,3,0.537
1,43,18,study,"ST MARKS BASILICA",3,mixed,loc,2,0.526
1,43,19,study,"LEBRON JAMES",3,mixed,cel,3,0.767
1,43,20,study,"CHRISTOPHER REEVE",3,mixed,cel,2,0.779
1,43,21,study,"BILL CLINTON",3,mixed,cel,3,0.899
1,43,22,study,"JEANS",3,mixed,obj,3,0.92
1,43,23,study,"TWEEZERS",3,mixed,obj,2,0.973
1,43,24,study,"PILL",3,mixed,obj,4,1.093
1,43,1,recall,"PILL",3,mixed,obj,4,1.093
1,43,2,recall,"TWEEZERS",3,mixed,obj,2,0.973
1,43,3,recall,"BILL CLINTON",3,mixed,cel,3,0.899
1,43,4,recall,"LEBRON JAMES",3,mixed,cel,3,0.767
1,43,5,recall,"BUTTON",3,mixed,obj,3,0.718
1,43,6,recall,"JEANS",3,mixed,obj,3,0.92
1,43,7,recall,"BRYCE CANYON",3,mixed,loc,3,0.796
1,43,8,recall,"JESSICA SIMPSON",3,mixed,cel,3,0.703
1,43,9,recall,"VACUUM CLEANER",3,mixed,obj,4,0.904
1,43,10,recall,"THERMOMETER",3,mixed,obj,3,0.667
1,43,11,recall,"WIMBLEDON",3,mixed,loc,3,1.043
1,43,12,recall,"JACQUES CHIRAC",3,mixed,cel,2,0.817
1,44,1,study,"GREAT BARRIER REEF",3,mixed,loc,4,0.883
1,44,2,study,"COLOSSEUM",3,mixed,loc,3,0.869
1,44,3,study,"ACADIA PARK",3,mixed,loc,2,0.641
1,44,4,study,"SMOKY MOUNTAINS",3,mixed,loc,3,0.76
1,44,5,study,"FRIDGE",3,mixed,obj,3,0.885
1,44,6,study,"INHALER",3,mixed,obj,3,0.818
1,44,7,study,"STEERING WHEEL",3,mixed,obj,2,0.991
1,44,8,study,"JENNIFER LOPEZ",3,mixed,cel,4,0.637
1,44,9,study,"BRUCE SPRINGSTEEN",3,mixed,cel,3,0.686
1,44,10,study,"LARRY KING",3,mixed,cel,2,0.637
1,44,11,study,"JOAN RIVERS",3,mixed,cel,3,0.632
1,44,12,study,"KOREAN WAR MEMORIAL",3,mixed,loc,2,0.69
1,44,13,study,"LUXEMBOURG PALACE",3,mixed,loc,3,0.641
1,44,14,study,"NICOLAS CAGE",3,mixed,cel,3,0.625
1,44,15,study,"LANCE ARMSTRONG",3,mixed,cel,2,0.679
1,44,16,study,"BANDAID",3,mixed,obj,3,0.506
1,44,17,study,"PEPPER",3,mixed,obj,3,0.971
1,44,18,study,"THE MET",3,mixed,loc,4,0.749
1,44,19,study,"HARRODS",3,mixed,loc,3,0.685
1,44,20,study,"DAVID HASSELHOFF",3,mixed,cel,3,0.831
1,44,21,study,"STEVE MARTIN",3,mixed,cel,3,0.664
1,44,22,study,"SHIRT",3,mixed,obj,2,0.735
1,44,23,study,"HIGHLIGHTER",3,mixed,obj,3,0.762
1,44,24,study,"RAKE",3,mixed,obj,1,0.893
1,44,1,recall,"RAKE",3,mixed,obj,1,0.893
1,44,2,recall,"DAVID HASSELHOFF",3,mixed,cel,3,0.831
1,44,3,recall,"STEVE MARTIN",3,mixed,cel,3,0.664
1,44,4,recall,"SHIRT",3,mixed,obj,2,0.735
1,44,5,recall,"BUTTON",3,mixed,obj,3,0.718
1,44,6,recall,"HIGHLIGHTER",3,mixed,obj,3,0.762
1,44,7,recall,"INHALER",3,mixed,obj,3,0.818
1,44,8,recall,"THERMOMETER",3,mixed,obj,3,0.667
1,44,9,recall,"STEERING WHEEL",3,mixed,obj,2,0.991
1,44,10,recall,"FRIDGE",3,mixed,obj,3,0.885
1,44,11,recall,"JOAN RIVERS",3,mixed,cel,3,0.632
1,45,1,study,"GOBLET",3,pure,obj,1,1.063
1,45,2,study,"BASKETBALL HOOP",3,pure,obj,2,1.182
1,45,3,study,"FLOWERPOT",3,pure,obj,1,0.882
1,45,4,study,"SEASHELL",3,pure,obj,1,0.931
1,45,5,study,"MAYONNAISE",3,pure,obj,2,1.193
1,45,6,study,"KEYCHAIN",3,pure,obj,2,0.856
1,45,7,study,"STAMP",3,pure,obj,3,0.86
1,45,8,study,"TOILET PAPER",3,pure,obj,4,1.06
1,45,9,study,"EASEL",3,pure,obj,1,1.139
1,45,10,study,"GLOVES",3,pure,obj,3,1.107
1,45,11,study,"LIPSTICK",3,pure,obj,3,0.881
1,45,12,study,"WREATH",3,pure,obj,1,0.879
1,45,13,study,"PERFUME",3,pure,obj,2,1.037
1,45,14,study,"BOX",3,pure,obj,3,0.809
1,45,15,study,"HIGH CHAIR",3,pure,obj,3,0.802
1,45,16,study,"PENCIL SHARPENER",3,pure,obj,3,0.9
1,45,17,study,"CORD",3,pure,obj,3,1.422
1,45,18,study,"WAFFLE",3,pure,obj,2,1.279
1,45,19,study,"BRICK",3,pure,obj,3,0.744
1,45,20,study,"PENDULUM",3,pure,obj,2,1.084
1,45,21,study,"MAILBOX",3,pure,obj,4,1.132
1,45,22,study,"STONE",3,pure,obj,2,1.023
1,45,23,study,"BALLOON",3,pure,obj,3,0.838
1,45,24,study,"SYRINGE",3,pure,obj,4,1.063
1,45,1,recall,"SYRINGE",3,pure,obj,4,1.063
1,45,2,recall,"BALLOON",3,pure,obj,3,0.838
1,45,3,recall,"PENCIL SHARPENER",3,pure,obj,3,0.9
1,45,4,recall,"GOBLET",3,pure,obj,1,1.063
1,45,5,recall,"FLOWERPOT",3,pure,obj,1,0.882
1,45,6,recall,"EASEL",3,pure,obj,1,1.139
1,45,7,recall,"STAMP",3,pure,obj,3,0.86
1,45,8,recall,"TOILET PAPER",3,pure,obj,4,1.06
1,45,9,recall,"BOX",3,pure,obj,3,0.809
1,46,1,study,"CARLSBAD CAVERNS",3,mixed,loc,3,1.04
1,46,2,study,"BUCKINGHAM FOUNTAIN",3,mixed,loc,2,0.785
1,46,3,study,"MOUNT VESUVIUS",3,mixed,loc,3,0.61
1,46,4,study,"ROCK OF GIBRALTAR",3,mixed,loc,3,0.826
1,46,5,study,"QUEEN LATIFAH",3,mixed,cel,4,0.89
1,46,6,study,"DAN RATHER",3,mixed,cel,3,0.736
1,46,7,study,"STOP SIGN",3,mixed,obj,4,1.367
1,46,8,study,"CHAIR",3,mixed,obj,3,0.761
1,46,9,study,"YOSEMITE",3,mixed,loc,4,1.015
1,46,10,study,"JOHN HANCOCK CENTER",3,mixed,loc,3,0.799
1,46,11,study,"GRAND CANYON",3,mixed,loc,3,0.745
1,46,12,study,"LONDON DUNGEON",3,mixed,loc,2,0.816
1,46,13,study,"YARN",3,mixed,obj,2,1.053
1,46,14,study,"PAPER BAG",3,mixed,obj,3,0.822
1,46,15,study,"UKELELE",3,mixed,obj,2,0.715
1,46,16,study,"LENS",3,mixed,obj,2,0.828
1,46,17,study,"KETCHUP",3,mixed,obj,3,0.52
1,46,18,study,"WINDOW",3,mixed,obj,2,0.534
1,46,19,study,"COLIN FARRELL",3,mixed,cel,3,0.686
1,46,20,study,"REESE WITHERSPOON",3,mixed,cel,3,0.765
1,46,21,study,"MATT DAMON",3,mixed,cel,3,0.522
1,46,22,study,"ANTONIO BANDERAS",3,mixed,cel,4,1.02
1,46,23,study,"NELSON MANDELA",3,mixed,cel,3,0.743
1,46,24,study,"MEL GIBSON",3,mixed,cel,3,0.891
1,46,1,recall,"MEL GIBSON",3,mixed,cel,3,0.891
1,46,2,recall,"NELSON MANDELA",3,mixed,cel,3,0.743
1,46,3,recall,"REESE WITHERSPOON",3,mixed,cel,3,0.765
1,46,4,recall,"MATT DAMON",3,mixed,cel,3,0.522
1,46,5,recall,"ANTONIO BANDERAS",3,mixed,cel,4,1.02
1,46,6,recall,"DAN RATHER",3,mixed,cel,3,0.736
1,46,7,recall,"QUEEN LATIFAH",3,mixed,cel,4,0.89
1,46,8,recall,"MOUNT VESUVIUS",3,mixed,loc,3,0.61
1,46,9,recall,"YOSEMITE",3,mixed,loc,4,1.015
1,46,10,recall,"ROCK OF GIBRALTAR",3,mixed,loc,3,0.826
1,46,11,recall,"LONDON DUNGEON",3,mixed,loc,2,0.816
1,46,12,recall,"BUCKINGHAM PALACE",3,mixed,,NaN,NaN
1,46,13,recall,"BUCKINGHAM FOUNTAIN",3,mixed,loc,2,0.785
1,46,14,recall,"CARLSBAD CAVERNS",3,mixed,loc,3,1.04
1,47,1,study,"HAT",3,mixed,obj,3,0.79
1,47,2,study,"RING",3,mixed,obj,4,0.792
1,47,3,study,"PARK AVENUE",3,mixed,loc,3,0.865
1,47,4,study,"ROSE BOWL",3,mixed,loc,3,0.622
1,47,5,study,"LAKE TAHOE",3,mixed,loc,3,0.798
1,47,6,study,"VIENNA",3,mixed,loc,3,0.718
1,47,7,study,"CAMERON DIAZ",3,mixed,cel,4,0.873
1,47,8,study,"TOBEY MAGUIRE",3,mixed,cel,3,0.597
1,47,9,study,"JOHN F KENNEDY",3,mixed,cel,4,0.826
1,47,10,study,"JANE FONDA",3,mixed,cel,3,0.667
1,47,11,study,"SERENGETI PLAIN",3,mixed,loc,2,0.709
1,47,12,study,"PONT DU GARD",3,mixed,loc,3,0.754
1,47,13,study,"ALEX TREBEK",3,mixed,cel,3,0.963
1,47,14,study,"COLIN POWELL",3,mixed,cel,3,0.577
1,47,15,study,"TOWEL",3,mixed,obj,3,0.808
1,47,16,study,"ALLENWRENCH",3,mixed,obj,3,0.823
1,47,17,study,"ANCHOR",3,mixed,obj,1,0.933
1,47,18,study,"PRINCE WILLIAM",3,mixed,cel,2,0.758
1,47,19,study,"BOB DOLE",3,mixed,cel,2,0.707
1,47,20,study,"FLOWER",3,mixed,obj,3,0.904
1,47,21,study,"GARLIC",3,mixed,obj,3,0.643
1,47,22,study,"TV",3,mixed,obj,4,1.008
1,47,23,study,"TAHITI",3,mixed,loc,4,0.799
1,47,24,study,"VERRAZANO NARROWS",3,mixed,loc,4,1.102
1,47,1,recall,"VERRAZANO NARROWS",3,mixed,loc,4,1.102
1,47,2,recall,"BOB DOLE",3,mixed,cel,2,0.707
1,47,3,recall,"ALEX TREBEK",3,mixed,cel,3,0.963
1,47,4,recall,"COLIN POWELL",3,mixed,cel,3,0.577
1,47,5,recall,"CAMERON DIAZ",3,mixed,cel,4,0.873
1,47,6,recall,"PRINCE WILLIAM",3,mixed,cel,2,0.758
1,47,7,recall,"TAHITI",3,mixed,loc,4,0.799
1,48,1,study,"WHISTLE",3,mixed,obj,2,0.999
1,48,2,study,"DRILL",3,mixed,obj,2,1.043
1,48,3,study,"BOSTON COMMON",3,mixed,loc,3,0.786
1,48,4,study,"HOLLYWOOD",3,mixed,loc,3,0.653
1,48,5,study,"OLD FAITHFUL",3,mixed,loc,3,0.618
1,48,6,study,"WESTMINSTER ABBEY",3,mixed,loc,3,0.557
1,48,7,study,"ELIZABETH TAYLOR",3,mixed,cel,2,0.477
1,48,8,study,"CLIVE OWEN",3,mixed,cel,3,0.441
1,48,9,study,"TINA TURNER",3,mixed,cel,2,0.606
1,48,10,study,"NECKLACE",3,mixed,obj,3,0.638
1,48,11,study,"LEMON",3,mixed,obj,3,0.4
1,48,12,study,"ACORN",3,mixed,obj,2,0.567
1,48,13,study,"COUCH",3,mixed,obj,3,1.002
1,48,14,study,"WEDDING DRESS",3,mixed,obj,1,1.004
1,48,15,study,"TABLE",3,mixed,obj,3,0.679
1,48,16,study,"LUCY LIU",3,mixed,cel,4,0.885
1,48,17,study,"ANGELINA JOLIE",3,mixed,cel,4,0.861
1,48,18,study,"JACK BLACK",3,mixed,cel,3,0.653
1,48,19,study,"CHARLIE SHEEN",3,mixed,cel,3,0.594
1,48,20,study,"CHE GUEVARA",3,mixed,cel,3,0.641
1,48,21,study,"OAHU BEACH",3,mixed,loc,3,0.997
1,48,22,study,"GATEWAY ARCH",3,mixed,loc,2,0.589
1,48,23,study,"WHITE HOUSE",3,mixed,loc,3,0.733
1,48,24,study,"WRIGLEY BUILDING",3,mixed,loc,3,0.495
1,48,1,recall,"WRIGLEY BUILDING",3,mixed,loc,3,0.495
1,48,2,recall,"WHITE HOUSE",3,mixed,loc,3,0.733
1,48,3,recall,"CLIVE OWEN",3,mixed,cel,3,0.441
1,48,4,recall,"ANGELINA JOLIE",3,mixed,cel,4,0.861
1,48,5,recall,"LUCY LIU",3,mixed,cel,4,0.885
1,48,6,recall,"GATEWAY ARCH",3,mixed,loc,2,0.589
1,48,7,recall,"OAHU BEACH",3,mixed,loc,3,0.997
1,48,8,recall,"HOLLYWOOD",3,mixed,loc,3,0.653
1,48,9,recall,"WESTMINSTER ABBEY",3,mixed,loc,3,0.557
1,48,10,recall,"ELIZABETH TAYLOR",3,mixed,cel,2,0.477
1,48,11,recall,"OLD FAITHFUL",3,mixed,loc,3,0.618
1,48,12,recall,"GARLIC",3,mixed,obj,3,0.643
2,1,1,study,"SHEA STADIUM",1,mixed,loc,4,1.076
2,1,2,study,"ACROPOLIS",1,mixed,loc,3,1.393
2,1,3,study,"EASTER ISLAND",1,mixed,loc,4,1.229
2,1,4,study,"COLOSSEUM",1,mixed,loc,3,1.332
2,1,5,study,"PHONE",1,mixed,obj,4,2.008
2,1,6,study,"DICE",1,mixed,obj,2,1.845
2,1,7,study,"ARMCHAIR",1,mixed,obj,3,2.036
2,1,8,study,"ACORN",1,mixed,obj,1,1.653
2,1,9,study,"SHOWER HEAD",1,mixed,obj,4,1.359
2,1,10,study,"BENICIO DEL TORO",1,mixed,cel,4,1.976
2,1,11,study,"ALEX TREBEK",1,mixed,cel,1,1.604
2,1,12,study,"JACK BLACK",1,mixed,cel,1,0.983
2,1,13,study,"JASON BIGGS",1,mixed,cel,1,1.182
2,1,14,study,"THERMOMETER",1,mixed,obj,3,3.111
2,1,15,study,"BOWLING BALL",1,mixed,obj,1,2.125
2,1,16,study,"DOOR",1,mixed,obj,4,1.506
2,1,17,study,"TERRELL OWENS",1,mixed,cel,1,1.532
2,1,18,study,"DREW BARRYMORE",1,mixed,cel,1,1.048
2,1,19,study,"JENNIFER ANISTON",1,mixed,cel,1,0.838
2,1,20,study,"RICHARD NIXON",1,mixed,cel,1,0.915
2,1,21,study,"OLYMPIA",1,mixed,loc,3,2.14
2,1,22,study,"ALCATRAZ",1,mixed,loc,1,1.987
2,1,23,study,"WHITE CLIFFS OF DOVER",1,mixed,loc,1,1.624
2,1,24,study,"COLONIAL WILLIAMSBURG",1,mixed,loc,1,1.121
2,1,1,recall,"COLONIAL",1,mixed,loc,1,1.121
2,1,2,recall,"WHITE",1,mixed,loc,1,1.624
2,1,3,recall,"RICHARD",1,mixed,cel,1,0.915
2,1,4,recall,"BENICIO",1,mixed,cel,4,1.976
2,1,5,recall,"JENNIFER",1,mixed,cel,1,0.838
2,1,6,recall,"DREW",1,mixed,cel,1,1.048
2,1,7,recall,"SHOWER",1,mixed,obj,4,1.359
2,1,8,recall,"THERMOMETER",1,mixed,obj,3,3.111
2,1,9,recall,"DOOR",1,mixed,obj,4,1.506
2,1,10,recall,"ARMCHAIR",1,mixed,obj,3,2.036
2,1,11,recall,"ALEX",1,mixed,cel,1,1.604
2,1,12,recall,"COLOSSEUM",1,mixed,loc,3,1.332
2,1,13,recall,"ANNAPOLIS",1,mixed,,NaN,NaN
2,1,14,recall,"ACROPOLIS",1,mixed,loc,3,1.393
2,1,15,recall,"SHEA",1,mixed,loc,4,1.076
2,1,16,recall,"EASTER",1,mixed,loc,4,1.229
2,1,17,recall,"JASON",1,mixed,cel,1,1.182
2,1,18,recall,"ACORN",1,mixed,obj,1,1.653
2,2,1,study,"MASADA",1,pure,loc,1,2.299
2,2,2,study,"CAPILANO BRIDGE",1,pure,loc,4,3.046
2,2,3,study,"SYDNEY OPERA HOUSE",1,pure,loc,4,1.353
2,2,4,study,"LONDON EYE",1,pure,loc,4,2.372
2,2,5,study,"SERENGETI PLAIN",1,pure,loc,4,1.56
2,2,6,study,"OXFORD",1,pure,loc,4,1.727
2,2,7,study,"SPHINX",1,pure,loc,4,1.199
2,2,8,study,"NAVAL ACADEMY CHAPEL",1,pure,loc,1,1.176
2,2,9,study,"CORCOVADO",1,pure,loc,1,2.411
2,2,10,study,"HOOVER DAM",1,pure,loc,1,2.487
2,2,11,study,"TREVI FOUNTAIN",1,pure,loc,4,2.642
2,2,12,study,"SAN FRANCISCO",1,pure,loc,4,1.565
2,2,13,study,"HOLLYWOOD",1,pure,loc,4,1.676
2,2,14,study,"OLD STATE HOUSE",1,pure,loc,1,1.468
2,2,15,study,"ARC DE TRIOMPHE",1,pure,loc,4,1.673
2,2,16,study,"WINTER PALACE",1,pure,loc,4,1.087
2,2,17,study,"LES INVALIDES",1,pure,loc,3,1.623
2,2,18,study,"MOULIN ROUGE",1,pure,loc,1,2.297
2,2,19,study,"MADISON SQUARE GARDEN",1,pure,loc,1,1.283
2,2,20,study,"GALAPAGOS ISLANDS",1,pure,loc,4,1.534
2,2,21,study,"CENTRAL PARK",1,pure,loc,4,1.246
2,2,22,study,"ANGEL FALLS",1,pure,loc,3,1.87
2,2,23,study,"BARCELONA CATHEDRAL",1,pure,loc,4,1.183
2,2,24,study,"EPCOT CENTER",1,pure,loc,4,1.753
2,2,1,recall,"LES",1,pure,loc,3,1.623
2,2,2,recall,"CORCOVADO",1,pure,loc,1,2.411
2,2,3,recall,"LONDON",1,pure,loc,4,2.372
2,2,4,recall,"SERENGETI",1,pure,loc,4,1.56
2,2,5,recall,"OXFORD",1,pure,loc,4,1.727
2,2,6,recall,"SPHINX",1,pure,loc,4,1.199
2,2,7,recall,"ANGEL",1,pure,loc,3,1.87
2,2,8,recall,"EPCOT",1,pure,loc,4,1.753
2,2,9,recall,"TOWN",1,pure,,NaN,NaN
2,2,10,recall,"SPHINX",1,pure,loc,4,1.199
2,2,11,recall,"MADISON",1,pure,loc,1,1.283
2,2,12,recall,"SYDNEY",1,pure,loc,4,1.353
2,2,13,recall,"GALAPAGOS",1,pure,loc,4,1.534
2,3,1,study,"EASEL",1,pure,obj,4,2.413
2,3,2,study,"SATELLITE DISH",1,pure,obj,2,1.621
2,3,3,study,"COUCH",1,pure,obj,4,1.963
2,3,4,study,"RING",1,pure,obj,1,1.567
2,3,5,study,"JEANS",1,pure,obj,4,1.531
2,3,6,study,"GRILL",1,pure,obj,1,1.942
2,3,7,study,"TENT",1,pure,obj,2,2.293
2,3,8,study,"STAPLE REMOVER",1,pure,obj,1,1.809
2,3,9,study,"BAYONET",1,pure,obj,1,1.99
2,3,10,study,"PIE",1,pure,obj,4,1.261
2,3,11,study,"MAILBOX",1,pure,obj,4,1.59
2,3,12,study,"DOORKNOB",1,pure,obj,4,1.372
2,3,13,study,"GLASS",1,pure,obj,4,1.32
2,3,14,study,"CIGARETTE",1,pure,obj,1,1.135
2,3,15,study,"SOCKET",1,pure,obj,4,1.085
2,3,16,study,"ORANGE",1,pure,obj,4,1.029
2,3,17,study,"GAS MASK",1,pure,obj,4,1.251
2,3,18,study,"FEATHER",1,pure,obj,4,0.937
2,3,19,study,"BOLT",1,pure,obj,4,1.227
2,3,20,study,"PRINTER",1,pure,obj,4,1.957
2,3,21,study,"RAKE",1,pure,obj,4,2.167
2,3,22,study,"GUM",1,pure,obj,4,0.886
2,3,23,study,"TOILET PAPER",1,pure,obj,4,0.962
2,3,24,study,"PROJECTOR",1,pure,obj,3,2.276
2,3,1,recall,"PROJECTOR",1,pure,obj,3,2.276
2,3,2,recall,"GUM",1,pure,obj,4,0.886
2,3,3,recall,"PIE",1,pure,obj,4,1.261
2,3,4,recall,"SOCKET",1,pure,obj,4,1.085
2,3,5,recall,"GAS",1,pure,obj,4,1.251
2,3,6,recall,"EASEL",1,pure,obj,4,2.413
2,3,7,recall,"BAYONET",1,pure,obj,1,1.99
2,3,8,recall,"JEANS",1,pure,obj,4,1.531
2,3,9,recall,"MAILBOX",1,pure,obj,4,1.59
2,3,10,recall,"ORANGE",1,pure,obj,4,1.029
2,4,1,study,"BOWL",1,mixed,obj,4,2.171
2,4,2,study,"SWORD",1,mixed,obj,3,1.599
2,4,3,study,"MASCARA",1,mixed,obj,3,1.939
2,4,4,study,"TWEEZERS",1,mixed,obj,1,1.965
2,4,5,study,"STONE",1,mixed,obj,3,2.1
2,4,6,study,"BELT",1,mixed,obj,4,2.073
2,4,7,study,"PRADO MUSEUM",1,mixed,loc,3,1.294
2,4,8,study,"GRAND TETON PARK",1,mixed,loc,4,2.155
2,4,9,study,"SMITHSONIAN CASTLE",1,mixed,loc,4,1.624
2,4,10,study,"WAILING WALL",1,mixed,loc,3,1.271
2,4,11,study,"DANNY DEVITO",1,mixed,cel,1,1.359
2,4,12,study,"NORMAN SCHWARZKOPF",1,mixed,cel,1,0.839
2,4,13,study,"BRITTANY MURPHY",1,mixed,cel,1,1.129
2,4,14,study,"PHILADELPHIA ART MUSEUM",1,mixed,loc,3,2.174
2,4,15,study,"ANGKOR WAT",1,mixed,loc,4,1.574
2,4,16,study,"NATIONAL AQUARIUM",1,mixed,loc,4,1.999
2,4,17,study,"ATOMIUM",1,mixed,loc,4,1.788
2,4,18,study,"JIM MORRISON",1,mixed,cel,3,2.354
2,4,19,study,"JOHNNY DEPP",1,mixed,cel,4,1.128
2,4,20,study,"KATE WINSLET",1,mixed,cel,3,2.252
2,4,21,study,"ALICIA KEYS",1,mixed,cel,3,3.027
2,4,22,study,"BARRY BONDS",1,mixed,cel,1,1.511
2,4,23,study,"MEDAL",1,mixed,obj,4,1.604
2,4,24,study,"KEYS",1,mixed,obj,4,1.778
2,4,1,recall,"PRADO",1,mixed,loc,3,1.294
2,4,2,recall,"GRAND",1,mixed,loc,4,2.155
2,4,3,recall,"SMITHSONIAN",1,mixed,loc,4,1.624
2,4,4,recall,"ANGKOR",1,mixed,loc,4,1.574
2,4,5,recall,"BARRY",1,mixed,cel,1,1.511
2,4,6,recall,"KATE",1,mixed,cel,3,2.252
2,4,7,recall,"BRITTANY",1,mixed,cel,1,1.129
2,4,8,recall,"JOHNNY",1,mixed,cel,4,1.128
2,4,9,recall,"ATOMIUM",1,mixed,loc,4,1.788
2,4,10,recall,"STONE",1,mixed,obj,3,2.1
2,4,11,recall,"BELT",1,mixed,obj,4,2.073
2,4,12,recall,"WAILING",1,mixed,loc,3,1.271
2,4,13,recall,"ALICIA",1,mixed,cel,3,3.027
2,4,14,recall,"TWEEZERS",1,mixed,obj,1,1.965
2,5,1,study,"CAMDEN YARDS",1,mixed,loc,1,1.892
2,5,2,study,"CHRYSLER BUILDING",1,mixed,loc,1,1.931
2,5,3,study,"REMOTE",1,mixed,obj,3,2.328
2,5,4,study,"ZIPLOCK BAG",1,mixed,obj,1,3.204
2,5,5,study,"TILE",1,mixed,obj,3,1.981
2,5,6,study,"WINDOW",1,mixed,obj,4,1.023
2,5,7,study,"JOHN F KENNEDY",1,mixed,cel,4,2.255
2,5,8,study,"JANE FONDA",1,mixed,cel,1,1.61
2,5,9,study,"CAR SEAT",1,mixed,obj,1,2.281
2,5,10,study,"SAFE",1,mixed,obj,1,0.992
2,5,11,study,"SUSAN SARANDON",1,mixed,cel,1,1.632
2,5,12,study,"UMA THURMAN",1,mixed,cel,3,2.029
2,5,13,study,"ANTHONY HOPKINS",1,mixed,cel,4,1.284
2,5,14,study,"HONG KONG",1,mixed,loc,4,1.06
2,5,15,study,"INDEPENDENCE HALL",1,mixed,loc,1,1.547
2,5,16,study,"SIERRA NEVADA",1,mixed,loc,4,1.054
2,5,17,study,"MARTIN LUTHER KING JR",1,mixed,cel,4,1.028
2,5,18,study,"OWEN WILSON",1,mixed,cel,4,1.57
2,5,19,study,"DANE COOK",1,mixed,cel,1,1.701
2,5,20,study,"WALKMAN",1,mixed,obj,3,2.322
2,5,21,study,"KEYCHAIN",1,mixed,obj,4,1.976
2,5,22,study,"MGM GRAND",1,mixed,loc,4,1.27
2,5,23,study,"EVERGLADES",1,mixed,loc,4,1.285
2,5,24,study,"ST PAULS CATHEDRAL",1,mixed,loc,4,1.51
2,5,1,recall,"ST",1,mixed,loc,4,1.51
2,5,2,recall,"EVERGLADES",1,mixed,loc,4,1.285
2,5,3,recall,"SIERRA",1,mixed,loc,4,1.054
2,5,4,recall,"DANE",1,mixed,cel,1,1.701
2,5,5,recall,"OWEN",1,mixed,cel,4,1.57
2,5,6,recall,"KEYCHAIN",1,mixed,obj,4,1.976
2,5,7,recall,"ANTHONY",1,mixed,cel,4,1.284
2,5,8,recall,"SUSAN",1,mixed,cel,1,1.632
2,5,9,recall,"JANE",1,mixed,cel,1,1.61
2,5,10,recall,"UMA",1,mixed,cel,3,2.029
2,5,11,recall,"WALKMAN",1,mixed,obj,3,2.322
2,5,12,recall,"KEYCHAIN",1,mixed,obj,4,1.976
2,5,13,recall,"MASCARA",1,mixed,obj,3,1.939
2,5,14,recall,"HONG",1,mixed,loc,4,1.06
2,6,1,study,"LEGO",1,mixed,obj,4,1.587
2,6,2,study,"CURTAIN",1,mixed,obj,3,1.92
2,6,3,study,"TRIPOD",1,mixed,obj,1,2.1
2,6,4,study,"SAN ANDREAS",1,mixed,loc,4,1.783
2,6,5,study,"ROMAN FORUM",1,mixed,loc,4,2.001
2,6,6,study,"CAPE CANAVERAL",1,mixed,loc,4,1.189
2,6,7,study,"VIENNA",1,mixed,loc,4,1.557
2,6,8,study,"PARIS HILTON",1,mixed,cel,1,1.701
2,6,9,study,"RUSSELL CROWE",1,mixed,cel,4,1.801
2,6,10,study,"PRINCE",1,mixed,cel,4,0.985
2,6,11,study,"VIETNAM MEMORIAL",1,mixed,loc,4,1.566
2,6,12,study,"PARK AVENUE",1,mixed,loc,3,2.671
2,6,13,study,"HUGH GRANT",1,mixed,cel,4,1.276
2,6,14,study,"STEVE MARTIN",1,mixed,cel,4,0.858
2,6,15,study,"LINDSAY LOHAN",1,mixed,cel,4,1.393
2,6,16,study,"WHISTLE",1,mixed,obj,4,1.808
2,6,17,study,"HAT",1,mixed,obj,4,1.373
2,6,18,study,"INK CARTRIDGE",1,mixed,obj,4,2.178
2,6,19,study,"SEAN PENN",1,mixed,cel,4,1.086
2,6,20,study,"MATT DAMON",1,mixed,cel,4,1.074
2,6,21,study,"FORBIDDEN CITY",1,mixed,loc,4,1.52
2,6,22,study,"SEA WORLD",1,mixed,loc,4,1.681
2,6,23,study,"SHIRT",1,mixed,obj,4,0.958
2,6,24,study,"VASE",1,mixed,obj,4,2.072
2,6,1,recall,"SEA",1,mixed,loc,4,1.681
2,6,2,recall,"VASE",1,mixed,obj,4,2.072
2,6,3,recall,"STEVE",1,mixed,cel,4,0.858
2,6,4,recall,"SEAN",1,mixed,cel,4,1.086
2,6,5,recall,"MATT",1,mixed,cel,4,1.074
2,6,6,recall,"LINDSAY",1,mixed,cel,4,1.393
2,6,7,recall,"CAPE",1,mixed,loc,4,1.189
2,6,8,recall,"INK",1,mixed,obj,4,2.178
2,6,9,recall,"CURTAIN",1,mixed,obj,3,1.92
2,6,10,recall,"LEGO",1,mixed,obj,4,1.587
2,6,11,recall,"SEA",1,mixed,loc,4,1.681
2,6,12,recall,"PRINCE",1,mixed,cel,4,0.985
2,7,1,study,"ANNETTE BENING",1,pure,cel,4,1.582
2,7,2,study,"JANET RENO",1,pure,cel,1,1.59
2,7,3,study,"WHITNEY HOUSTON",1,pure,cel,1,1.826
2,7,4,study,"RENEE ZELLWEGER",1,pure,cel,1,1.59
2,7,5,study,"LANCE ARMSTRONG",1,pure,cel,4,2.044
2,7,6,study,"BRUCE WILLIS",1,pure,cel,3,1.668
2,7,7,study,"ANDRE AGASSI",1,pure,cel,3,2.042
2,7,8,study,"ANGELINA JOLIE",1,pure,cel,4,1.189
2,7,9,study,"NICOLE KIDMAN",1,pure,cel,3,1.489
2,7,10,study,"DAVID SPADE",1,pure,cel,3,1.539
2,7,11,study,"BILL COSBY",1,pure,cel,1,1.382
2,7,12,study,"DONALD TRUMP",1,pure,cel,1,1.186
2,7,13,study,"JOHN KERRY",1,pure,cel,4,1.327
2,7,14,study,"PRINCE WILLIAM",1,pure,cel,1,2.264
2,7,15,study,"KEANU REEVES",1,pure,cel,1,1.33
2,7,16,study,"CLIVE OWEN",1,pure,cel,4,1.507
2,7,17,study,"HOWARD STERN",1,pure,cel,4,1.158
2,7,18,study,"AL GORE",1,pure,cel,4,1.767
2,7,19,study,"MERYL STREEP",1,pure,cel,3,2.409
2,7,20,study,"LIAM NEESON",1,pure,cel,1,1.492
2,7,21,study,"DALAI LAMA",1,pure,cel,4,1.688
2,7,22,study,"STING",1,pure,cel,1,2.167
2,7,23,study,"ALEX RODRIGUEZ",1,pure,cel,1,1.632
2,7,24,study,"GEORGE WASHINGTON",1,pure,cel,3,2.07
2,7,1,recall,"GEORGE",1,pure,cel,3,2.07
2,7,2,recall,"ALEX",1,pure,cel,1,1.632
2,7,3,recall,"KEANU",1,pure,cel,1,1.33
2,7,4,recall,"ANNETTE",1,pure,cel,4,1.582
2,7,5,recall,"JOHN",1,pure,cel,4,1.327
2,7,6,recall,"AL",1,pure,cel,4,1.767
2,7,7,recall,"JANET",1,pure,cel,1,1.59
2,7,8,recall,"RENEE",1,pure,cel,1,1.59
2,7,9,recall,"GEORGE",1,pure,cel,3,2.07
2,7,10,recall,"ANGELINA",1,pure,cel,4,1.189
2,7,11,recall,"NICOLE",1,pure,cel,3,1.489
2,7,12,recall,"LIAM",1,pure,cel,1,1.492
2,7,13,recall,"BRUCE",1,pure,cel,3,1.668
2,7,14,recall,"CLIVE",1,pure,cel,4,1.507
2,7,15,recall,"MERYL",1,pure,cel,3,2.409
2,8,1,study,"LADLE",1,mixed,obj,1,1.563
2,8,2,study,"STEERING WHEEL",1,mixed,obj,1,1.114
2,8,3,study,"KETCHUP",1,mixed,obj,1,1.771
2,8,4,study,"YELLOWSTONE",1,mixed,loc,4,2.11
2,8,5,study,"BRYCE CANYON",1,mixed,loc,4,2.187
2,8,6,study,"IGUAZU FALLS",1,mixed,loc,4,1.513
2,8,7,study,"FENWAY PARK",1,mixed,loc,3,1.82
2,8,8,study,"HEATHER GRAHAM",1,mixed,cel,1,1.985
2,8,9,study,"PRINCE CHARLES",1,mixed,cel,1,2.533
2,8,10,study,"USHER",1,mixed,cel,1,0.97
2,8,11,study,"PEN",1,mixed,obj,4,1.576
2,8,12,study,"CRAYONS",1,mixed,obj,4,1.328
2,8,13,study,"VIN DIESEL",1,mixed,cel,1,1.798
2,8,14,study,"SHAQUILLE O'NEAL",1,mixed,cel,1,1.352
2,8,15,study,"GRAND CENTRAL STATION",1,mixed,loc,4,2.372
2,8,16,study,"CHICAGO",1,mixed,loc,4,1.151
2,8,17,study,"NEWSPAPER",1,mixed,obj,4,1.257
2,8,18,study,"LAPTOP",1,mixed,obj,4,1.688
2,8,19,study,"STOCKING",1,mixed,obj,4,1.264
2,8,20,study,"CONDOLEEZZA RICE",1,mixed,cel,1,1.471
2,8,21,study,"FRANKLIN D ROOSEVELT",1,mixed,cel,4,1.667
2,8,22,study,"JOHN TRAVOLTA",1,mixed,cel,4,1.768
2,8,23,study,"MOUNT ST HELENS",1,mixed,loc,4,1.459
2,8,24,study,"DELPHI",1,mixed,loc,4,2.102
2,8,1,recall,"DELPHI",1,mixed,loc,4,2.102
2,8,2,recall,"JOHN",1,mixed,cel,4,1.768
2,8,3,recall,"CONDOLEEZZA",1,mixed,cel,1,1.471
2,8,4,recall,"IGUAZU",1,mixed,loc,4,1.513
2,8,5,recall,"BRYCE",1,mixed,loc,4,2.187
2,8,6,recall,"FENWAY",1,mixed,loc,3,1.82
2,8,7,recall,"KETCHUP",1,mixed,obj,1,1.771
2,8,8,recall,"PRINCE",1,mixed,cel,1,2.533
2,8,9,recall,"HEATHER",1,mixed,cel,1,1.985
2,8,10,recall,"USHER",1,mixed,cel,1,0.97
2,8,11,recall,"PEN",1,mixed,obj,4,1.576
2,8,12,recall,"CRAYONS",1,mixed,obj,4,1.328
2,8,13,recall,"DELPHI",1,mixed,loc,4,2.102
2,8,14,recall,"CHICAGO",1,mixed,loc,4,1.151
2,8,15,recall,"GRAND",1,mixed,loc,4,2.372
2,9,1,study,"FLOWERPOT",1,pure,obj,4,2.096
2,9,2,study,"JACKHAMMER",1,pure,obj,3,1.006
2,9,3,study,"SURGE PROTECTOR",1,pure,obj,4,1.774
2,9,4,study,"JOYSTICK",1,pure,obj,4,1.495
2,9,5,study,"SHAMPOO",1,pure,obj,1,1.388
2,9,6,study,"TV",1,pure,obj,4,1.311
2,9,7,study,"EMERALD",1,pure,obj,1,1.311
2,9,8,study,"MOUSE",1,pure,obj,4,1.339
2,9,9,study,"BELL",1,pure,obj,1,1.756
2,9,10,study,"MOP",1,pure,obj,4,1.282
2,9,11,study,"DOLLAR",1,pure,obj,4,1.754
2,9,12,study,"YARN",1,pure,obj,4,1.901
2,9,13,study,"TOILET SEAT",1,pure,obj,4,0.924
2,9,14,study,"MITTEN",1,pure,obj,1,1.301
2,9,15,study,"LIGHT SWITCH",1,pure,obj,4,1.102
2,9,16,study,"CACTUS",1,pure,obj,1,1.094
2,9,17,study,"LAMP",1,pure,obj,4,0.93
2,9,18,study,"HANGER",1,pure,obj,4,1.429
2,9,19,study,"AXE",1,pure,obj,4,1.979
2,9,20,study,"TABLE",1,pure,obj,4,0.896
2,9,21,study,"INHALER",1,pure,obj,1,1.469
2,9,22,study,"SMART CAR",1,pure,obj,4,1.524
2,9,23,study,"FIREPLACE",1,pure,obj,1,2.151
2,9,24,study,"HURDLE",1,pure,obj,1,2.203
2,9,1,recall,"HURDLE",1,pure,obj,1,2.203
2,9,2,recall,"FIREPLACE",1,pure,obj,1,2.151
2,9,3,recall,"LIGHT SWITCH",1,pure,obj,4,1.102
2,9,4,recall,"SURGE PROTECTOR",1,pure,obj,4,1.774
2,9,5,recall,"SMART CAR",1,pure,obj,4,1.524
2,9,6,recall,"FIREPLACE",1,pure,obj,1,2.151
2,9,7,recall,"HANGER",1,pure,obj,4,1.429
2,9,8,recall,"YARN",1,pure,obj,4,1.901
2,9,9,recall,"VACUUM CLEANER",1,pure,,NaN,NaN
2,9,10,recall,"TV",1,pure,obj,4,1.311
2,9,11,recall,"BASE",1,pure,,NaN,NaN
2,9,12,recall,"JACKHAMMER",1,pure,obj,3,1.006
2,9,13,recall,"INHALER",1,pure,obj,1,1.469
2,9,14,recall,"HURDLE",1,pure,obj,1,2.203
2,10,1,study,"BUNKER HILL",1,mixed,loc,1,1.41
2,10,2,study,"DOME OF THE ROCK",1,mixed,loc,3,2.571
2,10,3,study,"GREAT ZIMBABWE RUINS",1,mixed,loc,4,2.15
2,10,4,study,"LIGHTER",1,mixed,obj,4,2.469
2,10,5,study,"PADLOCK",1,mixed,obj,4,1.203
2,10,6,study,"PLATE",1,mixed,obj,4,2.27
2,10,7,study,"RIBBON",1,mixed,obj,4,1.19
2,10,8,study,"BOB SAGET",1,mixed,cel,1,1.178
2,10,9,study,"JIMMY CARTER",1,mixed,cel,1,1.207
2,10,10,study,"HALLE BERRY",1,mixed,cel,4,1.388
2,10,11,study,"ALLEN IVERSON",1,mixed,cel,3,2.246
2,10,12,study,"DESK",1,mixed,obj,4,2.464
2,10,13,study,"GUITAR",1,mixed,obj,4,2.113
2,10,14,study,"TAHITI",1,mixed,loc,4,0.959
2,10,15,study,"TAJ MAHAL",1,mixed,loc,4,0.977
2,10,16,study,"JAY LENO",1,mixed,cel,1,1.365
2,10,17,study,"MEL GIBSON",1,mixed,cel,1,1.321
2,10,18,study,"TRITON FOUNTAIN",1,mixed,loc,1,1.089
2,10,19,study,"WRIGLEY BUILDING",1,mixed,loc,1,2.104
2,10,20,study,"PONT DU GARD",1,mixed,loc,1,2.003
2,10,21,study,"BOUQUET",1,mixed,obj,1,2.207
2,10,22,study,"NEST",1,mixed,obj,3,1.978
2,10,23,study,"SYLVESTER STALLONE",1,mixed,cel,1,2.328
2,10,24,study,"JASON ALEXANDER",1,mixed,cel,4,1.7
2,10,1,recall,"JASON ALEXANDER",1,mixed,cel,4,1.7
2,10,2,recall,"SYLVESTER STALLONE",1,mixed,cel,1,2.328
2,10,3,recall,"BUNKER HILL",1,mixed,loc,1,1.41
2,10,4,recall,"GREAT ZIMBABWE RUINS",1,mixed,loc,4,2.15
2,10,5,recall,"BOUQUET",1,mixed,obj,1,2.207
2,10,6,recall,"DESK",1,mixed,obj,4,2.464
2,10,7,recall,"BOB SAGET",1,mixed,cel,1,1.178
2,10,8,recall,"ALLEN IVERSON",1,mixed,cel,3,2.246
2,10,9,recall,"HALLE BERRY",1,mixed,cel,4,1.388
2,10,10,recall,"JIMMY CARTER",1,mixed,cel,1,1.207
2,10,11,recall,"LIGHTER",1,mixed,obj,4,2.469
2,10,12,recall,"PADLOCK",1,mixed,obj,4,1.203
2,10,13,recall,"TAHITI",1,mixed,loc,4,0.959
2,10,14,recall,"ARC DE TRIOMPHE",1,mixed,loc,4,1.673
2,10,15,recall,"MEL GIBSON",1,mixed,cel,1,1.321
2,10,16,recall,"JAY LENO",1,mixed,cel,1,1.365
